timestamp,rel_time,acc_x,acc_y,acc_z,gyro_x,gyro_y,gyro_z,azimuth,pitch,roll,label
11193371212000,0,-0.901131418736832,-9.67075211277276,0.147410944880926,-0.02076942,0.03848451,-0.002443461,215.37515,144.389,15.920089,STD
11193376201000,0.004989,-0.919106829845749,-9.63480099962378,0.268745088819413,-0.015271631,0.038179077,-0.0061086523,215.63063,142.37892,15.012644,STD
11193381198000,0.009986,-0.94048213244285,-9.61895803774588,0.337110218734716,-0.017715093,0.036651913,-0.005497787,215.84317,140.45984,14.139201,STD
11193386182000,0.01497,-0.965857365155945,-9.62741661793372,0.341339420506823,-0.013744468,0.04520403,-0.004581489,216.01857,138.61206,13.300118,STD
11193391159000,0.019947,-0.979277822107765,-9.63783461846276,0.315340263573693,-0.020158553,0.03756821,-0.003970624,216.15991,136.83086,12.492911,STD
11193396207000,0.024995,-0.940970602107766,-9.65698811846276,0.157322953573693,-0.031154128,0.03970624,-0.007941248,216.27448,135.1179,11.72105,STD
11193401158000,0.029946,-0.914276323269338,-9.67078309876817,0.0591921272378204,-0.020463986,0.047647487,-0.0033597588,216.3635,133.4636,10.971573,STD
11193406225000,0.035013,-0.941202128471868,-9.66001256075907,0.242287584621019,-0.020158553,0.05009095,0.0012217305,216.4277,131.87816,10.252153,STD
11193411148000,0.039936,-0.955971775348906,-9.66025673429313,0.355196320095,-0.029626964,0.04184427,0.00061086525,216.46571,130.3787,9.57063,STD
11193416187000,0.044975,-0.951245501300132,-9.67916192919054,0.357559450950492,-0.021685716,0.04550946,-0.0033597588,216.48976,128.93224,8.920122,STD
11193421222000,0.05001,-0.946522979006905,-9.69805211698742,0.359920705933108,-0.020158553,0.047036625,0.00061086525,216.50217,127.53647,8.3025875,STD
11193426239000,0.055027,-0.941817339613633,-9.71687477283189,0.362273519487782,-0.018020526,0.047647487,-0.0012217305,216.50041,126.192085,7.7139487,STD
11193431191000,0.059979,-0.934457733358509,-9.73546172908288,0.376126624088279,-0.01863139,0.052534413,0.008246681,216.49117,124.898026,7.1479297,STD
11193436218000,0.065006,-0.920291213443845,-9.75435033025993,0.418626233140755,-0.019547688,0.052534413,0.003970624,216.4685,123.65338,6.609176,STD
11193441171000,0.069959,-0.909211704620049,-9.77068280930371,0.454204618270464,-0.018020526,0.053450707,0.0015271631,216.44113,122.449554,6.094309,STD
11193446197000,0.074985,-0.906819527451916,-9.78025146801849,0.470949860945281,-0.01985312,0.048258353,-0.0030543262,216.40398,121.2932,5.6027193,STD
11193451175000,0.079963,-0.904450196384872,-9.78972874280602,0.487535180888624,-0.009162978,0.051923547,-0.0009162979,216.36867,120.175095,5.137128,STD
11193456229000,0.085017,-0.902044692324437,-9.79935070881169,0.504373711823468,-0.023823744,0.050396383,-0.004276057,216.3242,119.107414,4.6932483,STD
11193461190000,0.089978,-0.90129486477739,-9.80073745941235,0.519835056714143,-0.018325957,0.061391957,0.003970624,216.28143,118.07103,4.2679467,STD
11193466186000,0.094974,-0.906060369540339,-9.77452711977092,0.53174883976992,-0.02443461,0.060170226,0.0076358155,216.23059,117.08133,3.8616533,STD
11193471250000,0.100038,-0.910890737058267,-9.74796003411355,0.543824780000996,-0.020463986,0.06872234,0.005192355,216.18587,116.12375,3.4786792,STD
11193476246000,0.105034,-0.915656241821215,-9.72174969447211,0.555738563056773,-0.028405234,0.0720821,0.009162978,216.13841,115.206696,3.109389,STD
11193481202000,0.10999,-0.918361595205028,-9.70332875396588,0.564019744148459,-0.032070424,0.06811147,0.009162978,216.113527881194,114.766140527088,2.93580441505679,STD
11193486195000,0.114983,-0.913590876610795,-9.71287040037913,0.559249020572683,-0.032070424,0.0711658,0.00030543262,216.08846,114.322296,2.7609239,STD
11193491196000,0.119984,-0.911242726345778,-9.71901295328381,0.549670527570368,-0.026572637,0.07147124,-0.0012217305,216.03969,113.470184,2.425643,STD
11193496193000,0.124981,-0.918258254044664,-9.71199752081704,0.521608382588937,-0.028099801,0.07666359,0.00030543262,215.98412,112.65229,2.117482,STD
11193501213000,0.130001,-0.925306072545446,-9.70494979798671,0.493417074242572,-0.037873644,0.06811147,-0.0009162979,215.9241,111.86828,1.8267654,STD
11193506225000,0.135013,-0.932342659462959,-9.69791330658718,0.465270692284011,-0.028099801,0.062002823,-0.00061086525,215.86652,111.10826,1.5488434,STD
11193511303000,0.140091,-0.936758662175782,-9.69113952487653,0.433459542548015,-0.032986723,0.06078109,-0.005192355,215.8077,110.383385,1.2843488,STD
11193516191000,0.144979,-0.923914858780867,-9.68685816617889,0.382084284263764,-0.028405234,0.05467244,-0.0030543262,215.74759,109.67749,1.0252045,STD
11193521766000,0.150554,-0.908806935235854,-9.68175610232273,0.323038156770695,-0.025961773,0.051923547,-0.0033597588,215.6848,109.00827,0.774169,STD
11193526291000,0.155079,-0.886636120593472,-9.67288760237389,0.26539406462908,-0.0290161,0.05009095,0.0012217305,215.6222,108.36445,0.5317498,STD
11193531542000,0.16033,-0.86229226428157,-9.66375732459872,0.198265455906014,-0.028710667,0.040927973,-0.003970624,215.5517,107.744774,0.3042778,STD
11193536274000,0.165062,-0.871056027112744,-9.68128475875072,0.132537188917037,-0.032375857,0.044593163,-0.004581489,215.48627,107.15061,0.08523226,STD
11193541139000,0.169927,-0.880066108721717,-9.69930482788629,0.0649615298085477,-0.029626964,0.055588737,0.004886922,215.41934,106.580315,-0.12474156,STD
11193546925000,0.175713,-0.862037739513304,-9.71557664340498,0.00988965550213048,-0.03604105,0.043066,-0.004276057,215.34697,106.03562,-0.32196656,STD
11193551147000,0.179935,-0.846723564870751,-9.72706251425054,-0.0283958078890257,-0.030848695,0.04428773,0.0012217305,215.28485,105.50818,-0.5151073,STD
11193556186000,0.184974,-0.839123235932269,-9.73185391620166,-0.0546681430957283,-0.02321288,0.051618114,0.0012217305,215.21477,105.00956,-0.69631225,STD
11193561132000,0.18992,-0.834566092222436,-9.7341325308832,-0.075175261952665,-0.0290161,0.055283304,0.005192355,215.14644,104.533134,-0.87252206,STD
11193566228000,0.195016,-0.829870741566288,-9.73648025033673,-0.096304311223783,-0.03634648,0.05467244,0.012217305,215.07867,104.07426,-1.0416406,STD
11193571189000,0.199977,-0.825299777161824,-9.73876577549548,-0.116873623122138,-0.0421497,0.048258353,0.002443461,215.01118,103.63484,-1.2001247,STD
11193576245000,0.205033,-0.80561757329149,-9.71562926560599,-0.106510699691481,-0.03481932,0.054061573,0.01038471,214.9503,103.21226,-1.357808,STD
11193581209000,0.209997,-0.777861473440374,-9.67862110348854,-0.0787545942853598,-0.034208454,0.06627888,0.0106901415,214.89008,102.80994,-1.5041599,STD
11193586261000,0.215049,-0.749613323471026,-9.64095687403299,-0.050506438662531,-0.044898596,0.061391957,0.004581489,214.82921,102.428566,-1.6500003,STD
11193591215000,0.220003,-0.721913138406072,-9.60402326502214,-0.0228062480537634,-0.032375857,0.069027774,0.014660766,214.77791,102.05713,-1.7927045,STD
11193596240000,0.225028,-0.71127144566333,-9.59414726401098,0.0214761621714344,-0.04184427,0.051923547,0.004276057,214.7158,101.70901,-1.9193947,STD
11193601182000,0.22997,-0.716081012819471,-9.60857601570042,0.0791910074686246,-0.037873644,0.05375614,0.0061086523,214.66406,101.369354,-2.0453296,STD
11193606173000,0.234961,-0.720938266902088,-9.62314782866724,0.137478096274427,-0.03756821,0.05100725,0.0061086523,214.6132,101.03739,-2.1527228,STD
11193611193000,0.239981,-0.72582374385956,-9.63780431055333,0.196103859809817,-0.029932396,0.043982297,0.009468411,214.56367,100.716095,-2.2570837,STD
11193616915000,0.245703,-0.72277936500241,-9.65733275624097,0.260730061669398,-0.034513887,0.033292156,0.002443461,214.51625,100.41093,-2.3587344,STD
11193621201000,0.249989,-0.71684497973012,-9.67315770101205,0.30820518102747,-0.03940081,0.044593163,0.007330383,214.47552,100.117546,-2.4594576,STD
11193626188000,0.254976,-0.709939991546988,-9.6915709066988,0.363445129753253,-0.040011674,0.040011674,0.0067195175,214.43254,99.82051,-2.5507157,STD
11193631195000,0.259983,-0.703007311412048,-9.71005795720482,0.418906614266988,-0.034513887,0.03940081,0.0009162979,214.39555,99.53552,-2.6370509,STD
11193636208000,0.264996,-0.702212812737834,-9.72304726061486,0.460462976243139,-0.03268129,0.027183503,0.0021380284,214.35498,99.26223,-2.7230687,STD
11193641206000,0.269994,-0.70928173435154,-9.72893802862628,0.484026056900337,-0.038789943,0.026267206,-0.0018325958,214.31863,99.00052,-2.8017018,STD
11193646121000,0.274909,-0.716233264910035,-9.73473097075836,0.507197833897162,-0.03145956,0.029932396,-0.0027488936,214.28824,98.72898,-2.8710485,STD
11193651171000,0.279959,-0.723375732727004,-9.7406830272725,0.531006068654835,-0.031154128,0.023823744,-0.003970624,214.25638,98.472145,-2.9362993,STD
11193656128000,0.284916,-0.730386665988136,-9.74652547165678,0.554375854732813,-0.041233405,0.017715093,-0.008857546,214.23282,98.2339,-2.9968853,STD
11193661233000,0.290021,-0.737606923058557,-9.7525423525488,0.578443387096758,-0.03604105,0.017104227,-0.002443461,214.21107,98.00294,-3.0573285,STD
11193666160000,0.294948,-0.744575425817806,-9.7583494381815,0.60167173811677,-0.04428773,0.022907447,-0.010079277,214.18666,97.78184,-3.1093674,STD
11193671249000,0.300037,-0.751773053287223,-9.76434746107268,0.625663838449799,-0.029626964,0.03634648,-0.013439035,214.16621,97.56442,-3.1614888,STD
11193676290000,0.305078,-0.753427422581926,-9.7667728285005,0.638505727500497,-0.03726278,0.026267206,-0.024740042,214.14172,97.362495,-3.2072399,STD
11193681239000,0.310027,-0.744014198510427,-9.76206611817279,0.62909251817279,-0.03390302,0.024740042,-0.008857546,214.12576,97.16617,-3.2565799,STD
11193686530000,0.315318,-0.742374574270883,-9.75132531492367,0.604304033548402,-0.039095376,0.018325957,-0.008552114,214.11104,96.97073,-3.3015864,STD
11193691198000,0.319986,-0.755090386405139,-9.73225166421731,0.557679412660946,-0.031154128,0.019242255,-0.008857546,214.09984,96.78243,-3.348228,STD
11193696189000,0.324977,-0.768686063003698,-9.71185822148478,0.507828623704371,-0.039095376,0.01863139,-0.013439035,214.088,96.60798,-3.3903637,STD
11193701176000,0.329964,-0.7822708434479,-9.69148112292595,0.458017787293543,-0.02687807,0.025350908,-0.0036651916,214.08026,96.43739,-3.4339957,STD
11193706201000,0.334989,-0.79355104733067,-9.67125108666204,0.405845035418548,-0.04428773,0.01985312,-0.009468411,214.06859,96.282776,-3.4640923,STD
11193711245000,0.340033,-0.776772489682181,-9.65447264727336,0.330341620170198,-0.03634648,0.018020526,-0.0067195175,214.06161,96.12974,-3.497249,STD
11193716188000,0.344976,-0.760329902359326,-9.63803017584231,0.256350069501563,-0.040317107,0.024740042,-0.00030543262,214.04915,96.00798,-3.5373828,STD
11193721269000,0.350057,-0.767966389885496,-9.62666873322619,0.17862726778626,-0.0421497,0.02687807,-0.0030543262,214.0358,95.88941,-3.5739753,STD
11193726188000,0.354976,-0.782161365973282,-9.61720524126155,0.102920853816794,-0.046731193,0.008857546,-0.0076358155,214.01974,95.77945,-3.6103153,STD
11193731218000,0.360006,-0.777747388075385,-9.60756348220356,0.0559882217897421,-0.043676864,0.006414085,-0.008857546,214.00743,95.682625,-3.6448102,STD
11193736194000,0.364982,-0.768218427675465,-9.59803485512898,0.0178724931226755,-0.037873644,0.0125227375,-0.011301007,213.99329,95.59047,-3.676294,STD
11193741246000,0.370034,-0.769950900570799,-9.61118636380933,-0.0208741022562588,-0.036957346,0.003970624,-0.013133603,213.97063,95.51499,-3.711664,STD
11193746127000,0.374915,-0.77463193891448,-9.62991022391348,-0.0583220458389746,-0.029626964,-0.0018325958,-0.014966198,213.95139,95.44098,-3.7446299,STD
11193751198000,0.379986,-0.764538974604352,-9.65104156998022,-0.076356327450544,-0.040011674,-0.0076358155,-0.009162978,213.92648,95.37667,-3.7772458,STD
11193756203000,0.384991,-0.750315838872404,-9.67237618694362,-0.0882089273590504,-0.041233405,-0.009468411,-0.008857546,213.9019,95.31166,-3.8065276,STD
11193761232000,0.39002,-0.73602450029179,-9.69381310776459,-0.100118362911474,-0.03756821,-0.019547688,-0.009162978,213.87242,95.25747,-3.8381698,STD
11193766189000,0.394977,-0.721937770257171,-9.71494311701286,-0.111857291532146,-0.03726278,-0.01160644,-0.013744468,213.84843,95.20684,-3.8671536,STD
11193771324000,0.400112,-0.732460264060992,-9.71690898484849,-0.118471624722061,-0.043982297,-0.021991149,-0.015882496,213.81729,95.16062,-3.8960736,STD
11193776183000,0.404971,-0.750423464678633,-9.71241809090909,-0.122962429565721,-0.044593163,-0.021685716,-0.011301007,213.79242,95.11683,-3.92418,STD
11193781243000,0.410031,-0.746900333638659,-9.71249326137545,-0.103552514408576,-0.045814894,-0.032070424,-0.0125227375,213.76398,95.07322,-3.9449105,STD
11193786208000,0.414996,-0.732774826286082,-9.7148475617666,-0.0729472263534188,-0.04337143,-0.021685716,-0.004581489,213.74265,95.03485,-3.9683256,STD
11193791202000,0.41999,-0.718566813452493,-9.71721561335842,-0.0421631762935089,-0.049785517,-0.018936822,-0.00061086525,213.70296,94.99495,-3.9895144,STD
11193796190000,0.424978,-0.704375870718424,-9.71958081987424,-0.0114161114759618,-0.044898596,-0.022296581,-0.0067195175,213.66551,94.955055,-4.009212,STD
11193801173000,0.429961,-0.690472336513726,-9.72333724793626,0.0460510383192551,-0.0421497,-0.010079277,0.0012217305,213.6283,94.91912,-4.027978,STD
11193806228000,0.435016,-0.676531832386255,-9.727984179689,0.120400447039739,-0.052839845,-0.0015271631,-0.0030543262,213.58989,94.88296,-4.0410986,STD
11193811194000,0.439982,-0.680810041024108,-9.72481912054194,0.197571489312612,-0.050701816,0.004276057,-0.0012217305,213.55632,94.836555,-4.0486436,STD
11193816567000,0.445355,-0.701314582327157,-9.71456663578402,0.284715848729827,-0.053450707,0.009468411,0.0018325958,213.52602,94.79467,-4.0549192,STD
11193821219000,0.450007,-0.711300800813498,-9.71349915546852,0.347439851623983,-0.05467244,0.008857546,0.0009162979,213.50745,94.74845,-4.0573716,STD
11193826189000,0.454977,-0.71608102537913,-9.71827947986341,0.404802586343276,-0.055283304,0.013744468,-0.0018325958,213.49277,94.70541,-4.0596824,STD
11193831194000,0.459982,-0.715717764908879,-9.7179162118069,0.461469147644436,-0.046731193,0.02107485,-0.00030543262,213.4814,94.660065,-4.0630393,STD
11193836218000,0.465006,-0.711053763047693,-9.71325211254362,0.517437218679721,-0.054367006,0.0143553335,0.00030543262,213.46812,94.61883,-4.065088,STD
11193841201000,0.469989,-0.715179919596166,-9.70655132260166,0.548043406532055,-0.057421334,0.0143553335,-0.004276057,213.45865,94.5702,-4.06022,STD
11193846189000,0.474977,-0.728514546487392,-9.69766184981855,0.552488282162464,-0.050396383,0.008857546,-0.0033597588,213.44656,94.5255,-4.0570407,STD
11193851169000,0.479957,-0.735761063220073,-9.68676978609514,0.547189605743858,-0.042760566,0.014660766,0.004886922,213.44147,94.47875,-4.051729,STD
11193856214000,0.485002,-0.730709839383168,-9.67161579811814,0.521933454912703,-0.048258353,0.015882496,0.0070249503,213.43427,94.43414,-4.0449314,STD
11193861196000,0.489984,-0.725817660457109,-9.66703725799691,0.490403793340985,-0.043066,0.014049901,-0.00030543262,213.42755,94.39172,-4.0398464,STD
11193866188000,0.494976,-0.721046226193922,-9.67658007670043,0.449846577192475,-0.0421497,0.00580322,-0.003970624,213.4201,94.354385,-4.036233,STD
11193872121000,0.500909,-0.715375368925595,-9.68792173202256,0.401644260804431,-0.04642576,0.005497787,-0.004276057,213.41989,94.32255,-4.033305,STD
11193876254000,0.505042,-0.711424980742552,-9.69582246713908,0.368065940623784,-0.05100725,0.004886922,-0.0036651916,213.41785,94.29181,-4.0294633,STD
11193881127000,0.509915,-0.705002786743986,-9.69946469711492,0.330041379288795,-0.047647487,0.006414085,-0.0021380284,213.41951,94.26533,-4.0290885,STD
11193886212000,0.515,-0.695667403249305,-9.69479739528419,0.292699825814243,-0.039095376,0.015577064,0.0033597588,213.42372,94.24173,-4.029667,STD
11193891128000,0.519916,-0.690874167309065,-9.69441705041042,0.256053984394183,-0.040011674,0.00580322,0.0012217305,213.42795,94.226585,-4.0324965,STD
11193896448000,0.525236,-0.695419900356888,-9.70350823170949,0.215142353737509,-0.03176499,0.0143553335,0.003970624,213.44034,94.213646,-4.0376406,STD
11193901498000,0.530286,-0.699731973084096,-9.70838172071752,0.171333079999112,-0.040317107,0.013439035,0.006414085,213.44644,94.20348,-4.0416255,STD
11193906208000,0.534996,-0.703737543459728,-9.69235952286653,0.103238335095462,-0.03268129,0.01038471,0.0036651916,213.45459,94.191376,-4.044434,STD
11193912296000,0.541084,-0.707980752370244,-9.67280932076999,0.017279085666097,-0.03176499,0.005497787,-0.00061086525,213.45975,94.18481,-4.049243,STD
11193916338000,0.545126,-0.697534743842763,-9.67629139632995,-0.010576956707565,-0.037873644,0.004581489,0.004276057,213.4654,94.18037,-4.0554857,STD
11193921213000,0.550001,-0.684935958199154,-9.680491079248,-0.044173742103805,-0.037873644,0.0067195175,0.0067195175,213.46452,94.17831,-4.0609903,STD
11193926268000,0.555056,-0.682745181686814,-9.68401319615277,-0.0583914682006899,-0.03481932,0.00061086525,0.0018325958,213.46121,94.17592,-4.0655365,STD
11193932255000,0.561043,-0.688090559256037,-9.68757666956711,-0.0601732625842941,-0.04062254,0.005192355,0.0030543262,213.46178,94.17659,-4.0721545,STD
11193936331000,0.565119,-0.691729737303832,-9.69000271226576,-0.0613863232002237,-0.032986723,0.0061086523,0.0067195175,213.45918,94.17562,-4.0768313,STD
11193941759000,0.570547,-0.696576022496038,-9.69323346785171,-0.0630017532844402,-0.030848695,0.0009162979,0.0036651916,213.45625,94.173904,-4.079734,STD
11193946185000,0.574973,-0.700527691298673,-9.69586783119426,-0.0643189775940831,-0.040011674,-0.0027488936,0.002443461,213.45753,94.17199,-4.080095,STD
11193951290000,0.580078,-0.705085592165698,-9.69890633658597,-0.0658382794695298,-0.04795292,-0.0015271631,0.002443461,213.45882,94.16942,-4.079865,STD
11193956134000,0.584922,-0.709501525765841,-9.6988515568611,-0.0678554761074276,-0.03390302,-0.0033597588,0.008857546,213.46266,94.16991,-4.0830784,STD
11193961130000,0.589918,-0.71452100675619,-9.68379332354175,-0.0728749591942929,-0.043676864,0.0027488936,0.01160644,213.4691,94.171165,-4.085092,STD
11193966114000,0.594902,-0.717034000953927,-9.67502804932007,-0.0655759547730871,-0.043676864,0.0061086523,0.0076358155,213.48024,94.175766,-4.0904646,STD
11193971159000,0.599947,-0.712130920377512,-9.68483441526284,-0.0214481983548813,-0.0421497,0.00030543262,0.006414085,213.49028,94.182076,-4.09711,STD
11193976100000,0.604888,-0.708027903016161,-9.69369636356045,0.02728333877983,-0.044593163,-0.008552114,0.004886922,213.50151,94.18686,-4.1005898,STD
11193981124000,0.609912,-0.705664399395785,-9.70078677570369,0.0910979841613696,-0.05100725,-0.00030543262,0.008246681,213.51573,94.192604,-4.1048985,STD
11193986129000,0.614917,-0.703309834184801,-9.70785037299209,0.154671292309181,-0.040317107,0.0021380284,0.011301007,213.52768,94.193504,-4.106637,STD
11193991115000,0.619903,-0.70096420738321,-9.71488715542565,0.218003263223265,-0.043066,0.0018325958,0.01038471,213.54097,94.19522,-4.1080284,STD
11193996113000,0.624901,-0.696161486994728,-9.7224226496778,0.275023234446397,-0.042455133,0.004581489,0.0027488936,213.55559,94.1949,-4.1081605,STD
11194001114000,0.629902,-0.682132905623902,-9.73177523257176,0.307756610509666,-0.041233405,0.011301007,-0.0009162979,213.57104,94.19539,-4.108987,STD
11194006130000,0.634918,-0.6696326095942,-9.73886909405894,0.340395475947651,-0.048258353,0.0030543262,-0.0009162979,213.581861232488,94.1936454325463,-4.10913000538846,STD
11194011321000,0.640109,-0.664951960992374,-9.73418834770737,0.373160035710385,-0.043066,0.004276057,0.009468411,213.59306,94.19184,-4.109278,STD
11194016149000,0.644937,-0.661231183260935,-9.72982025386403,0.40222588,-0.03756821,0.0070249503,0.0061086523,213.61949,94.18293,-4.104351,STD
11194021154000,0.649942,-0.670915370350541,-9.7249780591979,0.40222588,-0.040011674,0.0015271631,0.007330383,213.64424,94.1743,-4.100009,STD
11194026124000,0.654912,-0.680531835852106,-9.72016972603293,0.40222588,-0.042760566,-0.00061086525,0.004581489,213.6787,94.16291,-4.09294,STD
11194031125000,0.659913,-0.69020828333165,-9.71533140125265,0.40222588,-0.041233405,-0.0015271631,0.007941248,213.71164,94.15351,-4.087799,STD
11194036151000,0.664939,-0.69869005049949,-9.71129885820591,0.400975330627931,-0.04795292,-0.00580322,0.012217305,213.74269,94.14419,-4.082013,STD
11194041128000,0.669916,-0.693831362059123,-9.71615764811417,0.386399255160041,-0.042455133,-0.0076358155,0.0030543262,213.77385,94.13136,-4.073171,STD
11194046116000,0.674904,-0.690430535799677,-9.71775768319871,0.372144805360258,-0.046120327,-0.008246681,0.0067195175,213.8022,94.12734,-4.072214,STD
11194051202000,0.67999,-0.69829929263328,-9.69415133053312,0.360341661893376,-0.04734206,-0.0033597588,0.007941248,213.83131,94.11966,-4.0677605,STD
11194056174000,0.684962,-0.705991675444265,-9.67107410177706,0.348803079644588,-0.04550946,-0.011301007,0.004886922,213.84084,94.1076,-4.0602508,STD
11194061199000,0.689987,-0.71342626244818,-9.66536933074546,0.335279910151504,-0.040927973,-0.0021380284,0.007330383,213.85675,94.09766,-4.054581,STD
11194066205000,0.694993,-0.720653436760383,-9.668982993367,0.320825553980553,-0.03970624,-0.0061086523,0.0009162979,213.86664,94.08472,-4.045581,STD
11194071492000,0.70028,-0.7278373,-9.67242368690307,0.303280309110953,-0.043676864,0.002443461,0.008857546,213.8811,94.07945,-4.0436583,STD
11194076203000,0.704991,-0.7278373,-9.67013160973379,0.255147660241821,-0.04153884,-0.01038471,0.010995574,213.8883,94.07069,-4.038298,STD
11194081528000,0.710316,-0.7278373,-9.66754079866897,0.200741726209104,-0.041233405,-0.009773844,0.008246681,213.90007,94.06559,-4.035804,STD
11194086189000,0.714977,-0.7278373,-9.66527304836415,0.153119931180654,-0.043982297,-0.00030543262,0.004886922,213.91072,94.061035,-4.0336604,STD
11194091236000,0.720024,-0.727482036246375,-9.66406381351865,0.104634351750825,-0.04428773,-0.0018325958,0.01282817,213.92522,94.06206,-4.0367775,STD
11194096196000,0.724984,-0.722732418408159,-9.67831296460354,0.0951351061553845,-0.055283304,-0.0076358155,0.009773844,213.941,94.05933,-4.035582,STD
11194101231000,0.730019,-0.718624163337495,-9.69100165813567,0.0869185874344569,-0.04734206,-0.014049901,0.0067195175,213.95094,94.063065,-4.039959,STD
11194106166000,0.734954,-0.723541090928007,-9.68116759758635,0.0967524528838951,-0.04428773,-0.01160644,0.010079277,213.96158,94.06805,-4.045101,STD
11194111165000,0.739953,-0.726535507043926,-9.67452766224772,0.103392188798773,-0.036651913,-0.0076358155,0.0125227375,213.9649,94.071205,-4.049423,STD
11194116162000,0.74495,-0.717066716066482,-9.68873065096953,0.0891889894792244,-0.04153884,-0.003970624,0.01740966,213.96884,94.076164,-4.0552173,STD
11194121189000,0.749977,-0.706982056625086,-9.70017060662017,0.0760472393047834,-0.040317107,-0.0030543262,0.011301007,213.97307,94.07856,-4.0588794,STD
11194126164000,0.754952,-0.692942793291425,-9.69081139092427,0.0713674829056085,-0.03940081,0.0027488936,0.016798794,213.97974,94.0856,-4.066979,STD
11194131179000,0.759967,-0.680740381907042,-9.6833326064233,0.0697924387293038,-0.046120327,-0.009162978,0.0106901415,213.97952,94.08877,-4.071396,STD
11194136192000,0.76498,-0.690317181907042,-9.6976976064233,0.103311263729304,-0.05222898,-0.0021380284,0.017715093,213.98639,94.09697,-4.080782,STD
11194141214000,0.770002,-0.698631409810127,-9.71064425862882,0.135105527531056,-0.055283304,-0.0009162979,0.009773844,213.98961,94.09931,-4.08437,STD
11194146226000,0.775014,-0.692970704746835,-9.70781395042849,0.147370374052795,-0.044593163,0.0018325958,0.014966198,213.99525,94.10699,-4.093396,STD
11194151353000,0.780141,-0.687180115189873,-9.70491870099851,0.159916636645963,-0.048258353,-0.006414085,0.0076358155,213.99895,94.108925,-4.0965147,STD
11194161081000,0.789869,-0.676193016455696,-9.69942523767592,0.183721989192547,-0.057421334,-0.0021380284,0.014049901,214.01143,94.118774,-4.108755,STD
11194166104000,0.794892,-0.670519887658228,-9.69658871770579,0.196013753773292,-0.04917465,-0.0070249503,0.011911872,214.01933,94.118034,-4.1098623,STD
11194171092000,0.79988,-0.664886288924051,-9.69377196245774,0.208219869984472,-0.053145275,-0.00580322,0.015577064,214.0292,94.11909,-4.1120777,STD
11194176117000,0.804905,-0.659210901265823,-9.69093431307493,0.220516528757764,-0.05100725,-0.0018325958,0.022296581,214.03032,94.11976,-4.114416,STD
11194181105000,0.809893,-0.653577302531646,-9.68811755782687,0.232722644968944,-0.047036625,-0.0067195175,0.0125227375,214.02939,94.11688,-4.1129155,STD
11194186144000,0.814932,-0.647886102848101,-9.68527200255523,0.245053563090062,-0.04642576,0.0009162979,0.017104227,214.03334,94.120056,-4.117211,STD
11194191058000,0.819846,-0.642336081962025,-9.6824970355767,0.257078594177019,-0.046731193,-0.0030543262,0.015882496,214.03271,94.118835,-4.116926,STD
11194196112000,0.8249,-0.653961447322721,-9.66983633835022,0.274994330709117,-0.050396383,-0.004886922,0.018936822,214.02678,94.11557,-4.1144114,STD
11194201153000,0.829941,-0.667934476796913,-9.65586306570188,0.293624996145683,-0.04153884,-0.0033597588,0.013439035,214.021,94.109695,-4.1091385,STD
11194206139000,0.834927,-0.67435190337749,-9.64547044230964,0.288930204942866,-0.041233405,-0.0061086523,0.017715093,214.01535,94.10544,-4.1052413,STD
11194211103000,0.839891,-0.67915918775407,-9.63585617473961,0.279315626150268,-0.03848451,-0.00030543262,0.01282817,214.01291,94.09726,-4.0972447,STD
11194216130000,0.844918,-0.678000433071591,-9.64598524235374,0.269915928208036,-0.035124753,0.0009162979,0.0125227375,214.00832,85.90632,-4.0936275,STD
11194221174000,0.849962,-0.675659035213998,-9.66003367839659,0.260550331887936,-0.037873644,-0.015577064,0.0106901415,214.00061,85.91148,-4.0882072,STD
11194226137000,0.854925,-0.673355237123746,-9.67385651505017,0.251335134715719,-0.03481932,-0.017715093,0.0143553335,214.00351,85.910904,-4.0883684,STD
11194231114000,0.859902,-0.671044940308274,-9.68771834419078,0.242093942629053,-0.03940081,-0.02321288,0.014660766,214.00092,85.91178,-4.0869775,STD
11194236165000,0.864953,-0.672097245623725,-9.69517038344031,0.223933456808976,-0.04062254,-0.009162978,0.01985312,214.00352,85.910126,-4.0879683,STD
11194241143000,0.869931,-0.674469406165099,-9.69991455590387,0.202583994597701,-0.040927973,-0.009773844,0.020463986,214.00053,85.90967,-4.0876627,STD
11194246139000,0.874927,-0.676850144225506,-9.70467588286809,0.181157334652436,-0.042455133,-0.0106901415,0.017104227,213.99435,85.915146,-4.0815043,STD
11194251254000,0.880042,-0.679287589217296,-9.70955062014231,0.159220311910235,-0.03481932,-0.013744468,0.014049901,213.98764,85.920074,-4.075731,STD
11194256206000,0.884994,-0.686671043488556,-9.71424094189029,0.146511163004144,-0.04153884,-0.009773844,0.014049901,213.98296,85.92508,-4.0700364,STD
11194261867000,0.890655,-0.697368412233623,-9.71958973796369,0.135813788674033,-0.050396383,-0.003970624,0.015271631,213.97821,85.93033,-4.063989,STD
11194266812000,0.8956,-0.703019468006496,-9.72437164971579,0.126250155816078,-0.04428773,-0.0067195175,0.014049901,213.96986,85.934105,-4.0595665,STD
11194271234000,0.900022,-0.707317946447422,-9.72867021792529,0.117653189957369,-0.044593163,-0.007941248,0.0106901415,213.9638,85.938255,-4.0550184,STD
11194276270000,0.905058,-0.696035391988724,-9.72687385696099,0.130732078221333,-0.047036625,-0.01038471,0.011301007,213.95555,85.93972,-4.053184,STD
11194281191000,0.909979,-0.678893468627808,-9.72258828662362,0.152159500321906,-0.04795292,-0.010079277,0.014049901,213.94792,85.94139,-4.0511317,STD
11194286219000,0.915007,-0.675756420487168,-9.72314901642018,0.165495680243584,-0.04428773,-0.008246681,0.013744468,213.9257,85.95106,-4.04103,STD
11194291212000,0.92,-0.6861559338408,-9.72834888168769,0.1706954369204,-0.0421497,0.0015271631,0.01282817,213.90636,85.95972,-4.0319934,STD
11194296193000,0.924981,-0.690301652442591,-9.72463510067597,0.174697178939067,-0.04642576,-0.014049901,0.005497787,213.88039,85.97558,-4.0155125,STD
11194301172000,0.92996,-0.691444633582626,-9.71663418495613,0.178126124746153,-0.050396383,-0.00580322,0.010079277,213.86456,85.98771,-4.00277,STD
11194306207000,0.934995,-0.692600470104032,-9.70854328102977,0.181593636724196,-0.0571159,-0.005497787,0.013133603,213.8465,86.0008,-3.9894457,STD
11194311192000,0.93998,-0.693744828606357,-9.70053272371638,0.185026714621027,-0.05100725,-0.004886922,0.0106901415,213.83128,86.01348,-3.9763768,STD
11194316179000,0.944967,-0.694889646229445,-9.69251895253847,0.188461169881106,-0.050701816,-0.0018325958,0.016493361,213.81723,86.02271,-3.9670205,STD
11194321262000,0.95005,-0.696056501649168,-9.68435091586366,0.191961738577113,-0.053145275,-0.0018325958,0.015882496,213.80284,86.03395,-3.9555902,STD
11194326278000,0.955066,-0.697207976523323,-9.67629054365022,0.195416165604296,-0.04917465,-0.004276057,0.01282817,213.79079,86.04239,-3.946829,STD
11194331186000,0.959974,-0.698334658876264,-9.66840372012081,0.19879621501606,-0.047647487,-0.0030543262,0.015882496,213.78006,86.04903,-3.9399812,STD
11194336708000,0.965496,-0.69450816070316,-9.667596835336,0.203412312049399,-0.044593163,-0.0030543262,0.0143553335,213.772766792453,86.0539693151642,-3.93489679245283,STD
11194341203000,0.969991,-0.684929229684023,-9.67717596639964,0.20820178256008,-0.048258353,-0.009162978,0.0125227375,213.76683,86.05799,-3.930758,STD
11194346194000,0.974982,-0.677508237921753,-9.68459711314044,0.220470003419206,-0.049785517,-0.0070249503,0.017715093,213.75658,86.063324,-3.9251754,STD
11194351204000,0.979992,-0.672896129106988,-9.68920931827358,0.238918448310103,-0.042760566,-0.0036651916,0.015577064,213.73526,86.064514,-3.922146,STD
11194356189000,0.984977,-0.674614422519685,-9.69596678976378,0.246878010952756,-0.041233405,-0.011911872,0.01863139,213.71284,86.06442,-3.9204016,STD
11194361229000,0.990017,-0.684115814645669,-9.70546788425197,0.242127319850394,-0.044898596,-0.009162978,0.02321288,213.69505,86.06426,-3.9186568,STD
11194366217000,0.995005,-0.692536703679525,-9.70987977784372,0.238417976680514,-0.053450707,-0.011911872,0.023823744,213.67879,86.06592,-3.915211,STD
11194371270000,1.000058,-0.69971646189911,-9.70748647512364,0.236024718942631,-0.04642576,-0.004276057,0.023518313,213.66669,86.066055,-3.9129446,STD
11194376165000,1.004953,-0.706671719465875,-9.70516800751731,0.233706294911968,-0.046120327,-0.011301007,0.02321288,213.64894,86.06484,-3.9125197,STD
11194381228000,1.010016,-0.713865686587537,-9.70276996839763,0.231308300863501,-0.043982297,-0.0070249503,0.02443461,213.63715,86.06303,-3.912453,STD
11194386190000,1.014978,-0.716459791830986,-9.69050090140845,0.217238395295775,-0.049480084,-0.0033597588,0.018325957,213.623,86.0652,-3.9087782,STD
11194391248000,1.020036,-0.711586607283702,-9.66126220120724,0.183126083110664,-0.04520403,0.00030543262,0.028405234,213.61052,86.06194,-3.9101765,STD
11194396155000,1.024943,-0.7104642496417,-9.64206441317365,0.166366821142633,-0.044593163,-0.007941248,0.020463986,213.59703,86.05841,-3.9117596,STD
11194401233000,1.030021,-0.715238078089722,-9.63729048502994,0.175914483023461,-0.04550946,0.008246681,0.02076942,213.59193,86.04972,-3.9185178,STD
11194406700000,1.035488,-0.716245461823788,-9.63829795010745,0.183974368176212,-0.040927973,0.0061086523,0.021685716,213.57803,86.0429,-3.9236581,STD
11194411221000,1.040009,-0.712200174259553,-9.64638827179296,0.188019655740447,-0.051923547,-0.0009162979,0.019547688,213.56769,86.03766,-3.9278746,STD
11194416219000,1.045007,-0.705550114705882,-9.6544655502451,0.187358014093137,-0.04550946,0.007941248,0.017715093,213.56151,86.03077,-3.932832,STD
11194421320000,1.050108,-0.690583430637255,-9.65945454912173,0.167402424916258,-0.047036625,-0.004276057,0.0143553335,213.54749,86.025764,-3.9365773,STD
11194426235000,1.055023,-0.678734983182355,-9.66604379204411,0.155056386498622,-0.03940081,-0.004276057,0.021380283,213.543540756125,86.0217483572941,-3.93933537858655,STD
11194431239000,1.060027,-0.674016362938165,-9.67784034265459,0.162134321792044,-0.04184427,0.008246681,0.01985312,213.53952,86.01766,-3.9421434,STD
11194436192000,1.06498,-0.669345834147302,-9.68951666463174,0.169140119855258,-0.048563786,0.0070249503,0.019547688,213.52448,86.01277,-3.9449747,STD
11194441201000,1.069989,-0.664622499054746,-9.70132500236313,0.176225127426152,-0.046120327,0.01038471,0.018325957,213.51491,86.00807,-3.9473813,STD
11194446200000,1.074988,-0.659050883913043,-9.71350526521739,0.182833733478261,-0.045814894,0.00030543262,0.014966198,213.50139,86.00452,-3.9489913,STD
11194451211000,1.079999,-0.649777532154589,-9.72741551072464,0.187470385149758,-0.03390302,-0.0015271631,0.021380283,213.49141,85.99801,-3.9530375,STD
11194456193000,1.084981,-0.642576083045669,-9.74100809786109,0.191071090905112,-0.040011674,0.002443461,0.019242255,213.49277,85.99026,-3.9587872,STD
11194461279000,1.090067,-0.650620985035924,-9.75307521983649,0.187048660910893,-0.05467244,-0.0027488936,0.026267206,213.49098,85.978325,-3.9686499,STD
11194466205000,1.094993,-0.658412803204228,-9.76476272334627,0.183152772166983,-0.042455133,0.0021380284,0.02687807,213.49445,85.969826,-3.97397,STD
11194471247000,1.100035,-0.664419560318819,-9.75748357023644,0.17471960558254,-0.037873644,0.004581489,0.027488936,213.49568,85.96067,-3.981013,STD
11194476171000,1.104959,-0.669464618968653,-9.74234860500695,0.164629483014871,-0.04886922,0.008552114,0.020463986,213.49878,85.95401,-3.9857717,STD
11194481171000,1.109959,-0.674333139324487,-9.72774283413752,0.178632285560917,-0.051618114,0.011911872,0.023823744,213.49559,85.94041,-3.99591,STD
11194486249000,1.115037,-0.679221658665058,-9.71307696984318,0.198186373132288,-0.05131268,0.0143553335,0.025350908,213.49341,85.93001,-4.0032477,STD
11194491185000,1.119973,-0.681795942683376,-9.70535414891264,0.204798227290822,-0.043676864,0.004276057,0.01985312,213.48773,85.91978,-4.0104504,STD
11194496199000,1.124987,-0.684008349391817,-9.69871702119425,0.209223043017877,-0.04520403,0.0012217305,0.02321288,213.48479,85.907455,-4.02034,STD
11194501199000,1.129987,-0.686214578658312,-9.69209842554368,0.213635503854589,-0.049785517,0.0012217305,0.022602014,213.48405,85.899216,-4.0264,STD
11194506193000,1.134981,-0.688418160449687,-9.68548777220789,0.218042669738297,-0.046731193,0.011301007,0.022296581,213.48538,85.88992,-4.033284,STD
11194511186000,1.139974,-0.690815880091751,-9.682152,0.221552332105649,-0.048258353,0.009773844,0.022907447,213.48659,85.881615,-4.0402184,STD
11194516203000,1.144991,-0.693424355110074,-9.682152,0.224160811209588,-0.038789943,-0.00061086525,0.017715093,213.48808,85.87456,-4.045133,STD
11194521237000,1.150025,-0.696041668891664,-9.682152,0.226778129090638,-0.040317107,0.0012217305,0.025961773,213.4925,85.86376,-4.054437,STD
11194526220000,1.155008,-0.698632466383452,-9.682152,0.229368930640354,-0.04062254,0.01038471,0.023518313,213.49611,85.85709,-4.058962,STD
11194531180000,1.159968,-0.701211305548468,-9.682152,0.231947773844567,-0.045814894,0.0036651916,0.027794369,213.49562,85.84692,-4.067438,STD
11194536271000,1.165059,-0.703858255183365,-9.682152,0.234594727625343,-0.03726278,0.0076358155,0.02321288,213.50081,85.83945,-4.0724907,STD
11194541204000,1.169992,-0.706423056312604,-9.682152,0.237159532771791,-0.038789943,0.0030543262,0.017104227,213.50157,85.832405,-4.077989,STD
11194546190000,1.174978,-0.706998493123104,-9.68327543605774,0.236611498939046,-0.03176499,0.0061086523,0.02443461,213.51004,85.82531,-4.084063,STD
11194551194000,1.179982,-0.693780977116852,-9.69208683736324,0.214582282592627,-0.03970624,0.01282817,0.027488936,213.51817,85.82224,-4.0870256,STD
11194556620000,1.185408,-0.6799533,-9.7014701505056,0.19145355647165,-0.04886922,0.005497787,0.020158553,213.52269,85.81856,-4.0900583,STD
11194561202000,1.18999,-0.6799533,-9.70543203331528,0.189472656435536,-0.04153884,0.017104227,0.01985312,213.53436,85.81181,-4.095798,STD
11194566210000,1.194998,-0.6799533,-9.7097622622788,0.187307587168653,-0.044898596,0.018020526,0.018325957,213.54005,85.80746,-4.09988,STD
11194571242000,1.20003,-0.6799533,-9.71411324313832,0.185132142170459,-0.04734206,0.008246681,0.025961773,213.54582,85.800385,-4.1062407,STD
11194576174000,1.204962,-0.6799533,-9.71837775776454,0.18299992938606,-0.04153884,0.013439035,0.021685716,213.55605,85.79699,-4.108623,STD
11194581163000,1.209951,-0.682306151952995,-9.71810609891051,0.183135755976497,-0.04184427,0.014966198,0.019547688,213.56308,85.79146,-4.113782,STD
11194586213000,1.215001,-0.686907973162377,-9.7135041815976,0.185436666581188,-0.0421497,0.01282817,0.02076942,213.57042,85.78606,-4.1184688,STD
11194591902000,1.22069,-0.692092084223797,-9.70831996227223,0.188028722111899,-0.046731193,0.022296581,0.020463986,213.5812,85.78224,-4.122031,STD
11194596193000,1.224981,-0.696002265374185,-9.70440969946239,0.189983812687093,-0.052534413,0.030543262,0.020158553,213.59088,85.77838,-4.1257377,STD
11194601187000,1.229975,-0.700668832233698,-9.69818115184215,0.193098063864652,-0.06169739,0.026267206,0.021991149,213.59947,85.77467,-4.1297626,STD
11194606212000,1.235,-0.705614458871589,-9.68828995020811,0.198043695666718,-0.054367006,0.022602014,0.026267206,213.61035,85.769905,-4.1342373,STD
11194611165000,1.239953,-0.710489222799445,-9.6785404732542,0.202918464684754,-0.05375614,0.028710667,0.026572637,213.6151,85.768814,-4.135576,STD
11194616194000,1.244982,-0.71543878625456,-9.66864139802682,0.207868033308155,-0.05681047,0.028405234,0.025961773,213.6169,85.766655,-4.137743,STD
11194621272000,1.25006,-0.71734867910602,-9.662998,0.207042463567738,-0.052839845,0.03573562,0.020158553,213.62259,85.76551,-4.1384697,STD
11194626220000,1.255008,-0.715308113848936,-9.662998,0.198880196147188,-0.05681047,0.03268129,0.021380283,213.6251,85.76332,-4.1408944,STD
11194631122000,1.25991,-0.71328651908535,-9.662998,0.190793810760055,-0.0580322,0.032986723,0.02107485,213.62419,85.765755,-4.138114,STD
11194636195000,1.264983,-0.711194403574197,-9.662998,0.182425342161743,-0.060170226,0.02443461,0.02107485,213.61989,85.76798,-4.135803,STD
11194641564000,1.270352,-0.708980217061407,-9.662998,0.17356858917449,-0.03940081,0.030848695,0.019547688,213.62004,85.76931,-4.1331205,STD
11194646191000,1.274979,-0.715262962441769,-9.66628769992089,0.188830686409423,-0.04642576,0.027488936,0.016798794,213.61502,85.7727,-4.130119,STD
11194651179000,1.279967,-0.723660444800914,-9.67048652878615,0.209824405460139,-0.04062254,0.03145956,0.01985312,213.614,85.772804,-4.1284733,STD
11194656170000,1.284958,-0.725410468298839,-9.67985539374054,0.222693384235235,-0.05100725,0.020158553,0.01985312,213.60725,85.77646,-4.1250935,STD
11194661930000,1.290718,-0.719841324634023,-9.69656259212519,0.228262533715295,-0.048258353,0.02076942,0.01985312,213.60512,85.77803,-4.1227427,STD
11194666203000,1.294991,-0.710401645250933,-9.69606592762339,0.232462983720448,-0.04337143,0.009468411,0.025045475,213.58542,85.781136,-4.1176662,STD
11194671206000,1.299994,-0.695497228909166,-9.6861299613231,0.2374311328764,-0.036957346,0.030543262,0.021991149,213.57562,85.78604,-4.110671,STD
11194676199000,1.304987,-0.684081073929591,-9.6848765699334,0.214899542768792,-0.04795292,0.021685716,0.025045475,213.55962,85.78529,-4.109762,STD
11194681192000,1.30998,-0.674981747117032,-9.68942632835395,0.173952538857279,-0.04550946,0.01863139,0.025045475,213.55157,85.78497,-4.107313,STD
11194686179000,1.314967,-0.680143883084577,-9.69417064179104,0.15811260409204,-0.04337143,0.014049901,0.017715093,213.543,85.79564,-4.0959744,STD
11194691202000,1.31999,-0.700087608789386,-9.69915615671642,0.168084472150705,-0.043066,0.01863139,0.020158553,213.53636,85.803215,-4.0878034,STD
11194696191000,1.324979,-0.716603911792269,-9.70922537719641,0.177662663951581,-0.03726278,0.01160644,0.01863139,213.52412,85.81436,-4.076611,STD
11194701173000,1.329961,-0.730576466731745,-9.72319822393596,0.186977705441234,-0.043676864,0.02076942,0.016798794,213.51805,85.82531,-4.0665045,STD
11194706203000,1.334991,-0.734932785965614,-9.72879531707317,0.190295472982807,-0.046731193,0.019547688,0.016493361,213.49838,85.83372,-4.057143,STD
11194711197000,1.339985,-0.730152044342263,-9.72640489634146,0.187905102171132,-0.05222898,0.01985312,0.018020526,213.48216,85.84232,-4.0482483,STD
11194716175000,1.344963,-0.725386619472211,-9.72402213414634,0.185522389736106,-0.049480084,0.025350908,0.018020526,213.46677,85.8488,-4.0410533,STD
11194721235000,1.350023,-0.720542696241503,-9.72160012195122,0.183100428120752,-0.05497787,0.02443461,0.014660766,213.44998,85.85637,-4.033646,STD
11194726243000,1.355031,-0.715871989097994,-9.7180704392168,0.184347840902006,-0.058337633,0.028710667,0.018020526,213.43654,85.86145,-4.028531,STD
11194731231000,1.360019,-0.711331633770554,-9.71352998906948,0.188888196229446,-0.0571159,0.026267206,0.011301007,213.42126,85.87,-4.019872,STD
11194736180000,1.364968,-0.709982421797514,-9.71218074891976,0.193484214052383,-0.0421497,0.02687807,0.013439035,213.4094,85.87253,-4.0161424,STD
11194741201000,1.369989,-0.713178932653061,-9.71537732653061,0.198278983673469,-0.04062254,0.038179077,0.010995574,213.40022,85.87873,-4.0095015,STD
11194746189000,1.374977,-0.716354434773649,-9.71855289496776,0.203042240170179,-0.05222898,0.029626964,0.017104227,213.38689,85.88174,-4.005736,STD
11194751177000,1.379965,-0.719529936894237,-9.72172846340491,0.207805496666888,-0.055283304,0.022907447,0.015271631,213.3776,85.886795,-3.9992702,STD
11194756175000,1.384963,-0.722711805298145,-9.72491039825833,0.212578302595227,-0.05100725,0.03726278,0.020463986,213.37207,85.88832,-3.9968226,STD
11194761192000,1.38998,-0.725905769640364,-9.72810442930266,0.217369252443662,-0.05955936,0.022602014,0.028099801,213.35652,85.89055,-3.9945986,STD
11194766179000,1.394967,-0.729515646231156,-9.72835761871859,0.216909855785176,-0.055283304,0.034208454,0.01740966,213.35287,85.89518,-3.9889407,STD
11194771283000,1.400071,-0.733901861880833,-9.72397131146806,0.208137419905779,-0.051618114,0.040927973,0.02443461,213.3437,85.89328,-3.9905589,STD
11194776286000,1.405074,-0.741123740215668,-9.71953157299926,0.202967756234274,-0.054367006,0.03390302,0.027488936,213.33594,85.89168,-3.9913237,STD
11194781195000,1.409983,-0.761004333904218,-9.71456133375621,0.212908032319484,-0.06414085,0.022907447,0.029321533,213.32901,85.88878,-3.9937165,STD
11194786188000,1.414976,-0.772698335245749,-9.70967281450339,0.219057325992288,-0.046120327,0.029626964,0.022907447,213.32439,85.884926,-3.9957705,STD
11194791209000,1.419997,-0.761529234339868,-9.70520532342284,0.21458969262752,-0.05131268,0.040317107,0.03023783,213.31781,85.87904,-4.002211,STD
11194796185000,1.424973,-0.750460234915916,-9.70077787159714,0.210162099792809,-0.058643065,0.028405234,0.027488936,213.31204,85.87475,-4.0070834,STD
11194801464000,1.430252,-0.738717218846976,-9.69608082212208,0.205464900722382,-0.059253927,0.029321533,0.02076942,213.31291,85.8696,-4.0128193,STD
11194806555000,1.435343,-0.728188066413332,-9.69102745252266,0.200762173403534,-0.050701816,0.03573562,0.03268129,213.31184,85.86003,-4.0229306,STD
11194811196000,1.439984,-0.736327601034704,-9.67474804331105,0.192622634532552,-0.049785517,0.03023783,0.029321533,213.30771,85.8572,-4.026598,STD
11194816184000,1.444972,-0.745075715383207,-9.65725144922626,0.183874515616702,-0.053145275,0.032375857,0.024740042,213.3154,85.85185,-4.0331044,STD
11194821225000,1.450013,-0.732089882190701,-9.6571463322498,0.193135101136722,-0.04917465,0.028405234,0.02687807,213.3196,85.84521,-4.040291,STD
11194826207000,1.454995,-0.713290978486998,-9.66184615632388,0.207234288729314,-0.047647487,0.03848451,0.02687807,213.3283,85.84096,-4.0454497,STD
11194831200000,1.459988,-0.715286458106379,-9.66629944799854,0.21399112905319,-0.04550946,0.043982297,0.02565634,213.33298,85.83467,-4.0527,STD
11194836272000,1.46506,-0.724164822134893,-9.6707387227198,0.218430311067447,-0.04886922,0.03940081,0.022907447,213.33751,85.829285,-4.0592647,STD
11194841196000,1.469984,-0.726485720055933,-9.67798129155014,0.22026655,-0.043982297,0.042760566,0.01863139,213.3433,85.83689,-4.0528793,STD
11194846193000,1.474981,-0.724095824450659,-9.68754082406113,0.22026655,-0.04642576,0.03573562,0.024740042,213.34473,85.84281,-4.048794,STD
11194851177000,1.479965,-0.721712146304435,-9.69707548686576,0.22026655,-0.03756821,0.03634648,0.022907447,213.34659,85.841896,-4.0482926,STD
11194856206000,1.484994,-0.719306946184578,-9.70669623711546,0.22026655,-0.04550946,0.03756821,0.015882496,213.34662,85.84204,-4.0479727,STD
11194861194000,1.489982,-0.707611159253376,-9.70555749642574,0.206954865726767,-0.04337143,0.03756821,0.018936822,213.34645,85.83874,-4.04996,STD
11194866176000,1.494964,-0.688662939396346,-9.69608368328038,0.183269576066322,-0.047647487,0.038179077,0.021685716,213.34688,85.83842,-4.0498753,STD
11194871249000,1.500037,-0.681204872406668,-9.69548366494482,0.171130947593332,-0.054061573,0.029321533,0.012217305,213.34418,85.84034,-4.0469375,STD
11194876284000,1.505072,-0.683469215585818,-9.70227659990608,0.168866604414182,-0.033292156,0.040011674,0.022296581,213.34715,85.83457,-4.050454,STD
11194881123000,1.509911,-0.685645413528997,-9.70880510284104,0.166690406471003,-0.04550946,0.03573562,0.0106901415,213.34398,85.84269,-4.0428796,STD
11194886195000,1.514983,-0.68792639637004,-9.71564795609298,0.16440942362996,-0.051923547,0.031154128,0.018936822,213.34366,85.84074,-4.0439262,STD
11194891180000,1.519968,-0.690207271576639,-9.71910462856289,0.161451375432529,-0.053450707,0.038789943,0.016798794,213.33519,85.85132,-4.0323386,STD
11194896198000,1.524986,-0.6926019487941,-9.71431517410803,0.156662015996612,-0.059864793,0.038789943,0.020463986,213.32343,85.858444,-4.0250454,STD
11194901174000,1.529962,-0.694976582878214,-9.70956580675703,0.151912742869245,-0.0580322,0.04153884,0.015271631,213.30933,85.86699,-4.0151076,STD
11194906214000,1.535002,-0.697381758879809,-9.7047553542954,0.147102385843133,-0.05681047,0.037873644,0.015882496,213.29367,85.87308,-4.00817,STD
11194911183000,1.539971,-0.702995829481156,-9.70260133689893,0.144948411180646,-0.052534413,0.040927973,0.013133603,213.28108,85.88092,-3.9991667,STD
11194916977000,1.545765,-0.719637230820754,-9.70814858652404,0.150495550752774,-0.04337143,0.03970624,0.014660766,213.26653,85.88669,-3.9918485,STD
11194921306000,1.550094,-0.723823974601971,-9.70887536523882,0.156573349927028,-0.064446285,0.040011674,0.017104227,213.26277,85.8931,-3.9877806,STD
11194926236000,1.555024,-0.710400844200152,-9.70216389347991,0.167759298936694,-0.061086524,0.034513887,0.0106901415,213.25713,85.89906,-3.9817429,STD
11194931206000,1.559994,-0.696868804018196,-9.69539796758908,0.179036006153336,-0.057421334,0.04153884,0.016493361,213.25417,85.900116,-3.9822032,STD
11194936233000,1.565021,-0.683181567399545,-9.68855444456027,0.190442043814917,-0.05955936,0.035124753,0.02107485,213.24591,85.90324,-3.980558,STD
11194941307000,1.570095,-0.670899486036014,-9.68232633231932,0.201461597539375,-0.052839845,0.032986723,0.018020526,213.24176,85.908195,-3.9769077,STD
11194946190000,1.574978,-0.677782884456111,-9.68462084637653,0.206050532215299,-0.047036625,0.043066,0.025045475,213.23926,85.90909,-3.97761,STD
11194952268000,1.581056,-0.686350833585202,-9.68747688906334,0.211762501283548,-0.050701816,0.040317107,0.021380283,213.23616,85.91795,-3.9692123,STD
11194956221000,1.585009,-0.691923242750601,-9.68933439757618,0.215477442666699,-0.054061573,0.032375857,0.020463986,213.23442,85.923515,-3.9637973,STD
11194961525000,1.590313,-0.699487338197097,-9.69153877692895,0.219886111604278,-0.058643065,0.03023783,0.02076942,213.23361,85.929886,-3.9578831,STD
11194966182000,1.59497,-0.708005129946524,-9.6872797921123,0.211368315407754,-0.054367006,0.03970624,0.024740042,213.23393,85.93489,-3.9529917,STD
11194971251000,1.600039,-0.71727648197097,-9.68264401928953,0.202096958542781,-0.052534413,0.030543262,0.020463986,213.22818,85.93606,-3.9512212,STD
11194976229000,1.605017,-0.720381459297686,-9.682152,0.205354860810056,-0.052534413,0.032070424,0.018020526,213.2282,85.93548,-3.9511895,STD
11194981161000,1.609949,-0.722737443814844,-9.682152,0.210066832304469,-0.0571159,0.025045475,0.023823744,213.22319,85.93397,-3.9522443,STD
11194987033000,1.615821,-0.725542460255387,-9.682152,0.215676868114525,-0.047647487,0.022602014,0.026572637,213.21872,85.93155,-3.9536996,STD
11194991132000,1.61992,-0.727500526057462,-9.682152,0.219593001763268,-0.04428773,0.030848695,0.020463986,213.21541,85.93071,-3.954287,STD
11194996195000,1.624983,-0.721660030119888,-9.69038831683852,0.222325642110119,-0.042455133,0.028099801,0.024129177,213.21255,85.91783,-3.9653285,STD
11195001140000,1.629928,-0.714650714021412,-9.69973402284277,0.224662083249297,-0.044898596,0.02565634,0.024740042,213.2122,85.9079,-3.9735084,STD
11195006205000,1.634993,-0.707471303295673,-9.70930652049928,0.227055222656767,-0.04550946,0.018936822,0.028405234,213.20984,85.89552,-3.9837153,STD
11195011158000,1.639946,-0.70045064755538,-9.71866734594701,0.229395443680497,-0.044898596,0.020463986,0.02687807,213.20917,85.884865,-3.99234,STD
11195016227000,1.645015,-0.702706169749202,-9.71326031016872,0.21904554323575,-0.047036625,0.015577064,0.02565634,213.20474,85.8737,-4.0017333,STD
11195021276000,1.650064,-0.707115952074783,-9.70444056133151,0.205816187049704,-0.03481932,0.018936822,0.031154128,213.20313,85.8604,-4.012379,STD
11195026357000,1.655145,-0.711833786566566,-9.70603022852853,0.194812763577578,-0.049480084,0.01740966,0.020463986,213.21077,85.85008,-4.021911,STD
11195031212000,1.66,-0.716487977157157,-9.71301166021021,0.185504377536537,-0.053145275,0.027488936,0.022602014,213.22244,85.833664,-4.0362277,STD
11195036297000,1.665085,-0.721362654634635,-9.72032382912913,0.175755017491491,-0.04153884,0.020463986,0.018936822,213.23392,85.81861,-4.04998,STD
11195041236000,1.670024,-0.726097370870871,-9.7274260518018,0.166285580075075,-0.04886922,0.017104227,0.02076942,213.24892,85.803635,-4.065389,STD
11195046230000,1.675018,-0.726311864224872,-9.73613771124361,0.16280572,-0.046731193,0.011301007,0.024129177,213.26088,85.78832,-4.07959,STD
11195051182000,1.67997,-0.723935658512877,-9.74564248446738,0.16280572,-0.045814894,0.014660766,0.01863139,213.27425,85.7761,-4.091286,STD
11195056836000,1.685624,-0.721222599729432,-9.75649466294218,0.16280572,-0.044593163,0.023518313,0.01863139,213.28687,85.76353,-4.104978,STD
11195061237000,1.690025,-0.719110790089187,-9.76494185740054,0.16280572,-0.04734206,0.025350908,0.022602014,213.29813,85.751976,-4.1177807,STD
11195066235000,1.695023,-0.712174661961982,-9.76225703486654,0.150634034391805,-0.049785517,0.030848695,0.02565634,213.31583,85.7414,-4.1301866,STD
11195071272000,1.70006,-0.70267237857776,-9.75275455303851,0.131629452740077,-0.0580322,0.024129177,0.01985312,213.33015,85.73318,-4.1406565,STD
11195076239000,1.705027,-0.701991941472489,-9.74630419953006,0.14180875088506,-0.04734206,0.02687807,0.018936822,213.34879,85.72291,-4.152006,STD
11195081238000,1.710026,-0.706679079048365,-9.7416174534952,0.169931595917368,-0.05497787,0.03359759,0.02565634,213.3662,85.71425,-4.1634746,STD
11195086287000,1.715075,-0.711377232830918,-9.73691941091787,0.18195933,-0.051923547,0.03726278,0.020158553,213.3721,85.708824,-4.168495,STD
11195091226000,1.720014,-0.715947263285024,-9.73234928502415,0.18195933,-0.05100725,0.027488936,0.018325957,213.37585,85.701485,-4.1761403,STD
11195096227000,1.725015,-0.720574662009662,-9.72772178966184,0.18195933,-0.050396383,0.032986723,0.01985312,213.38629,85.69354,-4.183377,STD
11195101236000,1.730024,-0.725209463091787,-9.72308689178744,0.18195933,-0.050396383,0.02565634,0.026572637,213.39009,85.68491,-4.1912093,STD
11195106207000,1.734995,-0.730963550122549,-9.71733279340278,0.183001413374183,-0.05222898,0.030848695,0.021685716,213.40215,85.67989,-4.196218,STD
11195111210000,1.739998,-0.738303122794118,-9.70999332291667,0.185447937598039,-0.056505036,0.029321533,0.018020526,213.40994,85.67316,-4.203104,STD
11195116205000,1.744993,-0.745630959191177,-9.70266558854167,0.187890549730392,-0.04428773,0.038179077,0.018325957,213.41658,85.66352,-4.2110543,STD
11195121229000,1.750017,-0.753001339583333,-9.69529531076389,0.190347343194444,-0.045814894,0.034208454,0.020463986,213.419,85.65591,-4.2181554,STD
11195126191000,1.754979,-0.749501657594014,-9.69643954737149,0.196246829856185,-0.046120327,0.03359759,0.026267206,213.42482,85.64658,-4.2261786,STD
11195131187000,1.759975,-0.735553831493538,-9.70573780682149,0.205545390299291,-0.062308256,0.030543262,0.02321288,213.42871,85.64063,-4.2319717,STD
11195136206000,1.764994,-0.722125163516135,-9.70897791474167,0.201169516562335,-0.043676864,0.029626964,0.020463986,213.43184,85.628716,-4.241486,STD
11195141224000,1.770012,-0.709414076653148,-9.70474079730206,0.179984358517898,-0.04886922,0.02443461,0.019547688,213.43275,85.62021,-4.250314,STD
11195146145000,1.774933,-0.699665038969834,-9.70158407531295,0.163921998522471,-0.050396383,0.021991149,0.026572637,213.4353,85.615524,-4.254279,STD
11195151175000,1.779963,-0.702960155188453,-9.70323166782954,0.170512234400438,-0.04062254,0.03359759,0.023823744,213.44043,85.61347,-4.2551594,STD
11195156217000,1.785005,-0.706263132519324,-9.70488319098434,0.177118192511116,-0.043676864,0.03634648,0.026267206,213.433541633803,85.6146214426559,-4.25331242511066,STD
11195161115000,1.789903,-0.709471776503181,-9.70648754648061,0.183535483829263,-0.04886922,0.02076942,0.021380283,213.42685,85.61574,-4.2515182,STD
11195166108000,1.794896,-0.712742654292359,-9.70812301952938,0.190077242823039,-0.048563786,0.021991149,0.021685716,213.42268,85.610435,-4.2542214,STD
11195171162000,1.79995,-0.716053492735481,-9.70977847332239,0.196698923166427,-0.043676864,0.015882496,0.022907447,213.41217,85.60637,-4.255641,STD
11195176111000,1.804899,-0.719765058417023,-9.71238658983792,0.199608380011932,-0.04520403,0.025045475,0.02443461,213.40742,85.607445,-4.253818,STD
11195181120000,1.809908,-0.724534889499851,-9.71715652053296,0.194838543948494,-0.051618114,0.020158553,0.021380283,213.39713,85.60941,-4.251024,STD
11195186149000,1.814937,-0.723395569347331,-9.7189783921957,0.193016708430227,-0.046731193,0.014049901,0.02687807,213.38931,85.60652,-4.2520432,STD
11195191135000,1.819923,-0.709208209299792,-9.71424917341785,0.197745833384174,-0.040317107,0.02443461,0.023823744,213.38509,85.607155,-4.2498817,STD
11195196125000,1.824913,-0.695019183766426,-9.70951939946645,0.1983877944215,-0.052839845,0.021685716,0.023823744,213.369,85.60804,-4.248188,STD
11195201131000,1.829919,-0.6808086924711,-9.70478247011165,0.188914128611797,-0.03970624,0.02076942,0.015271631,213.3568,85.60973,-4.243379,STD
11195206125000,1.834913,-0.674020638628714,-9.70373447648812,0.180744615855371,-0.043982297,0.028405234,0.020463986,213.34787,85.61173,-4.2403073,STD
11195211135000,1.839923,-0.687862287248774,-9.71296243494567,0.176130728164247,-0.040927973,0.029626964,0.017715093,213.33725,85.6166,-4.2327285,STD
11195216111000,1.844899,-0.6991069,-9.7201715186535,0.173244946629117,-0.048258353,0.025045475,0.02076942,213.3358,85.61916,-4.2297683,STD
11195221161000,1.849949,-0.6991069,-9.71856911158969,0.178052070775959,-0.04153884,0.021380283,0.018936822,213.33505,85.62249,-4.224741,STD
11195226121000,1.854909,-0.6991069,-9.71699526227553,0.182773523403353,-0.046731193,0.022907447,0.021991149,213.33546,85.61867,-4.2281423,STD
11195231134000,1.859922,-0.6991069,-9.7154045956199,0.187545427036644,-0.04550946,0.03023783,0.022602014,213.33656,85.61517,-4.2302465,STD
11195236234000,1.865022,-0.6991069,-9.71378632313962,0.192400146472069,-0.050701816,0.028405234,0.014966198,213.33551,85.61412,-4.2307243,STD
11195241315000,1.870103,-0.6991069,-9.71217407951759,0.197236779697833,-0.049785517,0.02321288,0.02076942,213.33548,85.60879,-4.2351217,STD
11195246185000,1.874973,-0.700554439804906,-9.71015821498248,0.202560480560659,-0.04153884,0.016493361,0.015882496,213.34227,85.606186,-4.237375,STD
11195251178000,1.879966,-0.709611540363671,-9.70562957012975,0.211617585848092,-0.05589417,0.015271631,0.018325957,213.3489,85.60179,-4.2431707,STD
11195256232000,1.88502,-0.718665492577259,-9.70157500069003,0.219861557140815,-0.051618114,0.022296581,0.018020526,213.36157,85.59803,-4.2468243,STD
11195261194000,1.889982,-0.725691972186899,-9.7062594182562,0.212835072639854,-0.051618114,0.028710667,0.026572637,213.3734,85.59269,-4.253504,STD
11195266327000,1.895115,-0.732960597708118,-9.71110526980137,0.205566442058751,-0.044898596,0.029321533,0.02321288,213.38,85.588196,-4.2570934,STD
11195271264000,1.900052,-0.739951675868697,-9.71576608590862,0.198575359031495,-0.05131268,0.02443461,0.020158553,213.38663,85.58252,-4.262944,STD
11195276615000,1.905403,-0.745727075030387,-9.72109092568154,0.191220173757597,-0.051923547,0.023518313,0.020158553,213.39442,85.576256,-4.2684793,STD
11195281194000,1.909982,-0.730497984146553,-9.72870563014412,0.187412901036638,-0.049480084,0.022296581,0.019547688,213.40059,85.571465,-4.272735,STD
11195286193000,1.914981,-0.713872034085779,-9.73701877878104,0.183256413521445,-0.041233405,0.022907447,0.024740042,213.415,85.56132,-4.28425,STD
11195291199000,1.919987,-0.707024491714429,-9.7329760282554,0.18195933,-0.042760566,0.022296581,0.02687807,213.42836,85.55305,-4.2943187,STD
11195296161000,1.924949,-0.704635347340372,-9.7234192511815,0.18195933,-0.04520403,0.016798794,0.017104227,213.4402,85.54645,-4.302018,STD
11195301172000,1.92996,-0.702222610045249,-9.71376810045249,0.18195933,-0.040317107,0.021991149,0.01985312,213.45595,85.53859,-4.3105845,STD
11195306185000,1.934973,-0.699808909773756,-9.70411309773756,0.18195933,-0.03481932,0.022602014,0.021685716,213.46857,85.53401,-4.315794,STD
11195311313000,1.940101,-0.704302552311028,-9.701305,0.185423100015768,-0.040011674,0.020463986,0.02321288,213.47661,85.52899,-4.3208275,STD
11195316216000,1.945004,-0.711243773913472,-9.701305,0.190050583500049,-0.0421497,0.016187929,0.03176499,213.48398,85.52115,-4.3281426,STD
11195321188000,1.949976,-0.7182826794422,-9.701305,0.194743189635853,-0.04917465,0.018020526,0.024129177,213.4922,85.52187,-4.328109,STD
11195326197000,1.954985,-0.725373966206761,-9.701305,0.199470716613777,-0.03023783,0.020463986,0.025045475,213.49911,85.51627,-4.332772,STD
11195331197000,1.959985,-0.724760189020304,-9.70745935048295,0.204190054192785,-0.042455133,0.019242255,0.023518313,213.50076,85.52004,-4.330751,STD
11195336393000,1.965181,-0.71985568943426,-9.71726855450424,0.209094558900059,-0.041233405,0.022602014,0.027488936,213.50438,85.51967,-4.330612,STD
11195341180000,1.969968,-0.719447182521455,-9.71867900100026,0.208909724978694,-0.04520403,0.023518313,0.027183503,213.50616,85.52006,-4.3307657,STD
11195346202000,1.97499,-0.721371470420309,-9.71579260933843,0.206023291121092,-0.049785517,0.018936822,0.020463986,213.5073,85.521126,-4.3301506,STD
11195351199000,1.979987,-0.723286179028547,-9.71292058641247,0.203151226209414,-0.044593163,0.032070424,0.022907447,213.51434,85.520134,-4.3311048,STD
11195356183000,1.984971,-0.725195906405665,-9.71005603522916,0.200286633149619,-0.046120327,0.02443461,0.022296581,213.51411,85.52261,-4.329153,STD
11195361197000,1.989985,-0.727117128931522,-9.70717424156281,0.197404797354712,-0.05955936,0.019547688,0.021685716,213.51605,85.52552,-4.327081,STD
11195366181000,1.994969,-0.72902685630864,-9.7043096903795,0.194540204294917,-0.040011674,0.01985312,0.02321288,213.51724,85.52565,-4.3254814,STD
11195371202000,1.99999,-0.730950761035869,-9.7014238734671,0.191654345195151,-0.048258353,0.030543262,0.027794369,213.52284,85.52434,-4.328005,STD
11195376201000,2.004989,-0.732866235987357,-9.69855070104227,0.1887811307678,-0.051618114,0.031154128,0.023823744,213.52562,85.52331,-4.328367,STD
11195381193000,2.009981,-0.734779028737472,-9.69568155186349,0.185911939645308,-0.04428773,0.03023783,0.022602014,213.53088,85.52019,-4.3307548,STD
11195386186000,2.014974,-0.736692204659211,-9.69281182793526,0.183042173764979,-0.049480084,0.032986723,0.022296581,213.53728,85.51917,-4.3321924,STD
11195391175000,2.019963,-0.735954881038375,-9.69318809706546,0.18633698993228,-0.048258353,0.020463986,0.018020526,213.53575,85.52196,-4.328884,STD
11195396195000,2.024983,-0.733595692894298,-9.69554708813426,0.193414559291393,-0.042455133,0.037873644,0.025961773,213.54352,85.52143,-4.329218,STD
11195401174000,2.029962,-0.731255773019923,-9.69788681254294,0.200434323801158,-0.05681047,0.03604105,0.021991149,213.54071,85.52514,-4.3269944,STD
11195406205000,2.034993,-0.728891415340073,-9.70025097271567,0.207527401778388,-0.03970624,0.01863139,0.021685716,213.53831,85.52296,-4.32805,STD
11195411195000,2.039983,-0.7278373,-9.70518772037192,0.215866605086338,-0.04184427,0.0290161,0.023823744,213.54514,85.52357,-4.329194,STD
11195416746000,2.045534,-0.7278373,-9.71303372721011,0.226327734530919,-0.045814894,0.021380283,0.02107485,213.54184,85.52449,-4.3286543,STD
11195421290000,2.050078,-0.7278373,-9.71945639971467,0.23489112350519,-0.042760566,0.025045475,0.022602014,213.54578,85.52405,-4.3287396,STD
11195426314000,2.055102,-0.7278373,-9.72655752354012,0.244359095821813,-0.037873644,0.02565634,0.021380283,213.54668,85.525246,-4.327222,STD
11195431230000,2.060018,-0.736576652848248,-9.72348134848063,0.235887931602082,-0.044898596,0.03023783,0.02107485,213.54253,85.52563,-4.3256884,STD
11195436211000,2.064999,-0.754308105612861,-9.71018248118205,0.209290733940154,-0.04734206,0.02565634,0.022296581,213.53609,85.525246,-4.3242507,STD
11195441233000,2.070021,-0.762690705589204,-9.69957824705132,0.198443724231219,-0.044593163,0.033292156,0.021991149,213.53558,85.52563,-4.321632,STD
11195446228000,2.075016,-0.752524704951652,-9.69449567134205,0.218775741429179,-0.049480084,0.032375857,0.026267206,213.53142,85.52513,-4.320672,STD
11195451163000,2.079951,-0.742898692364057,-9.69786722599306,0.227797254045507,-0.04153884,0.027488936,0.025350908,213.51985,85.527245,-4.317452,STD
11195456266000,2.085054,-0.733475165483995,-9.71200231951408,0.223085485685499,-0.04428773,0.03268129,0.023823744,213.5111,85.52938,-4.3154755,STD
11195461190000,2.089978,-0.729676572510778,-9.72229831092178,0.216588003057894,-0.04642576,0.025961773,0.021991149,213.49945,85.53242,-4.311087,STD
11195466240000,2.095028,-0.734640937117635,-9.72726277920345,0.206659268660439,-0.04642576,0.028405234,0.022907447,213.49213,85.53503,-4.307309,STD
11195471265000,2.100053,-0.734309785773115,-9.730036,0.20214771248946,-0.043982297,0.03268129,0.02321288,213.48979,85.53705,-4.3045163,STD
11195476317000,2.105105,-0.72719408909697,-9.730036,0.204519613858221,-0.03970624,0.018936822,0.017715093,213.48312,85.5402,-4.3003287,STD
11195481120000,2.109908,-0.72042910668693,-9.730036,0.206774610349544,-0.047036625,0.029932396,0.019547688,213.48483,85.542366,-4.2989407,STD
11195486350000,2.115138,-0.713062698607707,-9.730036,0.209230082273262,-0.046731193,0.026572637,0.020463986,213.47862,85.545265,-4.2956934,STD
11195491134000,2.119922,-0.709443079852301,-9.72699849644954,0.20537408706921,-0.04520403,0.03023783,0.029932396,213.47905,85.54145,-4.2990766,STD
11195496227000,2.125015,-0.711752047964401,-9.71776267222117,0.189211298229502,-0.05467244,0.03359759,0.024129177,213.47856,85.54245,-4.298308,STD
11195501148000,2.129936,-0.713983037966294,-9.70883875880515,0.173594356568358,-0.05497787,0.027488936,0.018325957,213.47778,85.542206,-4.297673,STD
11195506233000,2.135021,-0.716288379189547,-9.69961744205643,0.157456955969513,-0.044898596,0.03176499,0.016187929,213.48094,85.54248,-4.2965026,STD
11195511176000,2.139964,-0.719848895226552,-9.6927878969793,0.145769961960656,-0.049785517,0.025350908,0.016798794,213.47932,85.544716,-4.294417,STD
11195516231000,2.145019,-0.733389093995898,-9.70181441338803,0.163823574458326,-0.03756821,0.028405234,0.018325957,213.48167,85.54517,-4.292116,STD
11195521583000,2.150371,-0.746743360431112,-9.71112954473845,0.182454409396255,-0.062002823,0.028405234,0.021380283,213.47923,85.54734,-4.2925444,STD
11195526279000,2.155067,-0.742500857454837,-9.71537213631433,0.190939419778784,-0.04886922,0.02321288,0.021380283,213.47621,85.546135,-4.292526,STD
11195531158000,2.159946,-0.738093026956276,-9.71978005886515,0.19975508537852,-0.047647487,0.018936822,0.02107485,213.47269,85.54421,-4.295241,STD
11195536229000,2.165017,-0.733511738073676,-9.72436144342248,0.208917667927456,-0.043676864,0.03023783,0.02076942,213.47221,85.54116,-4.2979574,STD
11195541226000,2.170014,-0.728997302943257,-9.72887597283147,0.217946542902222,-0.05100725,0.025350908,0.020158553,213.46593,85.53911,-4.3003316,STD
11195546238000,2.175026,-0.731374984344035,-9.72649824177566,0.22380423803805,-0.05589417,0.02321288,0.021380283,213.4642,85.53192,-4.3064947,STD
11195551182000,2.17997,-0.736066591478399,-9.7218065366627,0.228495850071344,-0.046731193,0.02076942,0.017104227,213.46104,85.526115,-4.310712,STD
11195556205000,2.184993,-0.734070247843783,-9.72714684397713,0.226499504352166,-0.043676864,0.031154128,0.024740042,213.46269,85.51915,-4.31632,STD
11195561233000,2.190021,-0.729403889630778,-9.73647975530575,0.221833141266596,-0.05100725,0.022602014,0.021991149,213.45836,85.51647,-4.3175187,STD
11195566235000,2.195023,-0.730991495507851,-9.73015021586166,0.210803956889286,-0.040927973,0.022296581,0.01863139,213.45912,85.509766,-4.321311,STD
11195571308000,2.200096,-0.735819870224607,-9.71566478920692,0.196318822655536,-0.03940081,0.018936822,0.022296581,213.45657,85.50328,-4.326128,STD
11195576320000,2.205108,-0.731074528169014,-9.69503307042253,0.188366344084507,-0.053145275,0.015882496,0.021991149,213.45108,85.503525,-4.324912,STD
11195581230000,2.210018,-0.721746599583416,-9.67171324895854,0.183702379791708,-0.04184427,0.021991149,0.026267206,213.44746,85.49943,-4.326156,STD
11195586230000,2.215018,-0.715245422709639,-9.66601314025664,0.180451789780662,-0.03268129,0.01740966,0.021685716,213.43883,85.498344,-4.32608,STD
11195591238000,2.220026,-0.710474646384164,-9.67078401621406,0.178066399127126,-0.049480084,0.018936822,0.022296581,213.43376,85.49592,-4.32874,STD
11195596230000,2.225018,-0.705719112155575,-9.67553964975629,0.175688629529991,-0.048563786,0.014660766,0.020158553,213.43036,85.49748,-4.326791,STD
11195601928000,2.230716,-0.70029102040187,-9.68096785486919,0.172974580819158,-0.052839845,0.02107485,0.021685716,213.43044,85.499504,-4.326207,STD
11195606212000,2.235,-0.697684111940007,-9.68072918222678,0.178073676696956,-0.049480084,0.013133603,0.017715093,213.42528,85.50285,-4.323405,STD
11195611234000,2.240022,-0.695334476413112,-9.67837949763056,0.187472226164932,-0.04337143,0.016798794,0.021685716,213.42522,85.50361,-4.3234854,STD
11195616230000,2.245018,-0.692997005466803,-9.67604197786897,0.196822117272461,-0.038179077,0.015882496,0.019242255,213.42682,85.50819,-4.3202095,STD
11195621269000,2.250057,-0.69063941617568,-9.67368433934242,0.206252481822268,-0.038789943,0.020463986,0.017104227,213.43094,85.51148,-4.3182464,STD
11195626310000,2.255098,-0.694488900736934,-9.68249254969456,0.213169150368467,-0.032986723,0.018325957,0.021991149,213.43279,85.51251,-4.317602,STD
11195631223000,2.260011,-0.703613465538641,-9.70074158402017,0.21773143276932,-0.03756821,0.016187929,0.015271631,213.43597,85.51811,-4.3131013,STD
11195636199000,2.264987,-0.710808723987354,-9.71300706836594,0.213891473600079,-0.04337143,0.017104227,0.021380283,213.43953,85.52517,-4.307546,STD
11195641236000,2.270024,-0.715574416696305,-9.71777286060067,0.199594385520648,-0.04153884,0.025045475,0.021991149,213.44455,85.53503,-4.2987947,STD
11195646154000,2.274942,-0.722089378307692,-9.72428795826923,0.185792810539423,-0.045814894,0.020463986,0.020463986,213.4457,85.54324,-4.292464,STD
11195651178000,2.279966,-0.731342040461538,-9.73354081365385,0.171913812477885,-0.048563786,0.02443461,0.022907447,213.45145,85.54973,-4.287697,STD
11195656144000,2.284932,-0.739786387023203,-9.739613,0.16280572,-0.038179077,0.01863139,0.019547688,213.45699,85.558395,-4.2818007,STD
11195661236000,2.290024,-0.747024065586504,-9.739613,0.16280572,-0.04795292,0.01863139,0.017104227,213.46509,85.56757,-4.277051,STD
11195666169000,2.294957,-0.754035744367486,-9.739613,0.16280572,-0.03970624,0.014966198,0.025350908,213.47383,85.56776,-4.279823,STD
11195672097000,2.300885,-0.762461698515807,-9.739613,0.16280572,-0.04917465,0.018936822,0.022907447,213.48459,85.57341,-4.27888,STD
11195676163000,2.304951,-0.763443586042065,-9.73623685755258,0.166181864562619,-0.04886922,0.0290161,0.019547688,213.49573,85.57562,-4.279976,STD
11195681234000,2.310022,-0.75415793541109,-9.72462979426386,0.177788935123327,-0.047647487,0.026572637,0.019242255,213.50414,85.57814,-4.281158,STD
11195686192000,2.31498,-0.745079202256214,-9.71328137782027,0.189137358676864,-0.049785517,0.021380283,0.015271631,213.51315,85.580605,-4.2825913,STD
11195691223000,2.320011,-0.735866796749522,-9.7017658709369,0.200652872774857,-0.042455133,0.02687807,0.01863139,213.52423,85.580284,-4.285996,STD
11195696182000,2.32497,-0.726709114633145,-9.69201102278091,0.211253842977937,-0.05681047,0.028405234,0.021685716,213.53242,85.58266,-4.2880955,STD
11195701198000,2.329986,-0.716850268291432,-9.69447552847614,0.216183268722422,-0.04550946,0.02687807,0.015271631,213.5411,85.584404,-4.2883687,STD
11195706277000,2.335065,-0.706867596726526,-9.69697098789123,0.221174607110826,-0.05589417,0.017104227,0.015577064,213.55043,85.59728,-4.28095,STD
11195711231000,2.340019,-0.697130610128271,-9.69940503119548,0.22604310295177,-0.049480084,0.027488936,0.01985312,213.56487,85.60847,-4.273187,STD
11195716215000,2.345003,-0.696986138952504,-9.69597925789107,0.230908510646221,-0.044593163,0.023518313,0.0143553335,213.5722,85.62258,-4.26288,STD
11195721312000,2.3501,-0.731008905775167,-9.67167728158917,0.235768916056955,-0.04184427,0.028405234,0.019547688,213.58473,85.631836,-4.257166,STD
11195726523000,2.355311,-0.753309151555191,-9.65233490791957,0.237247810967583,-0.0421497,0.013744468,0.024129177,213.59245,85.64514,-4.246447,STD
11195731220000,2.360008,-0.742234330972507,-9.64864360943783,0.229864585681576,-0.04550946,0.015271631,0.021685716,213.60599,85.65859,-4.235563,STD
11195736194000,2.364982,-0.730506385990973,-9.64473462100944,0.222045943447682,-0.03726278,0.015882496,0.014966198,213.6075,85.670654,-4.225716,STD
11195741726000,2.370514,-0.730638092289797,-9.649446555334,0.22026655,-0.043066,0.01985312,0.011911872,213.61034,85.68301,-4.216557,STD
11195746126000,2.374914,-0.733438884579595,-9.655048110668,0.22026655,-0.0421497,0.013133603,0.019547688,213.61024,85.692856,-4.208843,STD
11195751175000,2.379963,-0.736652793732137,-9.66147589541376,0.22026655,-0.04153884,0.007941248,0.01160644,213.61247,85.709816,-4.194295,STD
11195756142000,2.38493,-0.739814506301097,-9.66779928753739,0.22026655,-0.050396383,0.009468411,0.0125227375,213.6146,85.7222,-4.184818,STD
11195761197000,2.389985,-0.743032234715852,-9.6742347107677,0.22026655,-0.029932396,0.011911872,0.022296581,213.6155,85.73203,-4.176,STD
11195766163000,2.394951,-0.74619331074111,-9.68055682981057,0.22026655,-0.04428773,0.02076942,0.01740966,213.61871,85.747765,-4.163683,STD
11195771288000,2.400076,-0.749455597215022,-9.68708136869392,0.22026655,-0.048258353,0.008857546,0.018936822,213.6116,85.7566,-4.155589,STD
11195776193000,2.404981,-0.752577844074443,-9.69332582981057,0.22026655,-0.043676864,0.009468411,0.013744468,213.61072,85.76863,-4.1446033,STD
11195781187000,2.409975,-0.755756743323363,-9.69968359511466,0.22026655,-0.04337143,0.008552114,0.018325957,213.60602,85.77756,-4.137149,STD
11195786168000,2.414956,-0.758927367504154,-9.70602481036889,0.22026655,-0.038789943,0.007330383,0.017715093,213.60155,85.78846,-4.127101,STD
11195791197000,2.419985,-0.762128545782652,-9.7124271334995,0.22026655,-0.040927973,0.01740966,0.020463986,213.59827,85.80078,-4.1165,STD
11195796194000,2.424982,-0.765309354662679,-9.71878871804586,0.22026655,-0.046731193,0.008246681,0.015271631,213.58928,85.81496,-4.1038027,STD
11195801190000,2.429978,-0.762721161051815,-9.71018912614011,0.216843211051814,-0.041233405,0.019547688,0.013744468,213.58911,85.82637,-4.093456,STD
11195806209000,2.434997,-0.758057279895207,-9.69619767746944,0.212179329895207,-0.042455133,0.016187929,0.011301007,213.58226,85.8397,-4.081698,STD
11195811185000,2.439973,-0.75380679859829,-9.69448967076923,0.216211555686325,-0.04520403,0.020158553,0.015882496,213.57896,85.845436,-4.076883,STD
11195816219000,2.445007,-0.749686319008547,-9.69860980615385,0.224452519168376,-0.04642576,0.020158553,0.01985312,213.5737,85.8517,-4.0714474,STD
11195821216000,2.450004,-0.748552121123796,-9.70026422214427,0.22828214322342,-0.043676864,0.028405234,0.014966198,213.5721,85.85935,-4.064621,STD
11195826205000,2.454993,-0.753123090716882,-9.69721701514765,0.223711186358186,-0.050701816,0.024740042,0.02321288,213.56708,85.86256,-4.062849,STD
11195831157000,2.459945,-0.75766016055552,-9.69419240720071,0.219174129153007,-0.0421497,0.021991149,0.02321288,213.56886,85.869354,-4.056653,STD
11195836182000,2.46497,-0.762264113693475,-9.69112321193954,0.214570188834747,-0.04062254,0.018325957,0.017104227,213.56927,85.87608,-4.0512075,STD
11195841167000,2.469955,-0.766831418448243,-9.68807844808342,0.210002896797627,-0.052839845,0.010079277,0.016493361,213.57843,85.880295,-4.049868,STD
11195846200000,2.474988,-0.771442701262836,-9.68500436654123,0.205391626823139,-0.054061573,0.019547688,0.024740042,213.5914,85.882866,-4.049442,STD
11195851240000,2.480028,-0.774806259659091,-9.68270107541322,0.201478995563017,-0.04520403,0.022602014,0.023823744,213.59679,85.88782,-4.0460343,STD
11195856179000,2.484967,-0.762590372784091,-9.69003049018595,0.206365342659607,-0.036651913,0.019242255,0.022907447,213.60283,85.89038,-4.045038,STD
11195861203000,2.489991,-0.750164250965909,-9.69748604390496,0.211335783601756,-0.042760566,0.015271631,0.013439035,213.60742,85.89339,-4.044235,STD
11195866206000,2.494994,-0.737790069545455,-9.7049104338843,0.216285448417355,-0.044593163,0.021380283,0.018936822,213.61374,85.89174,-4.0474453,STD
11195871242000,2.50003,-0.729584343100496,-9.7117555397927,0.219393028449752,-0.054367006,0.008246681,0.013439035,213.61334,85.8964,-4.044781,STD
11195876204000,2.504992,-0.738150378539883,-9.71603864695809,0.215110010730059,-0.030848695,0.0125227375,0.014660766,213.61949,85.89601,-4.045707,STD
11195881529000,2.510317,-0.746779464155844,-9.72003611948052,0.210478313935065,-0.04062254,0.013439035,0.021685716,213.62051,85.89094,-4.0505896,STD
11195886185000,2.514973,-0.741953751948052,-9.71038449350649,0.205652596688312,-0.03848451,0.018325957,0.019242255,213.62395,85.88668,-4.0529904,STD
11195891170000,2.519958,-0.737126394162922,-9.70159271184547,0.201400645987288,-0.033292156,0.017104227,0.015882496,213.62479,85.87979,-4.058562,STD
11195896191000,2.524979,-0.734738673488591,-9.70398048238449,0.203788367908235,-0.04184427,0.01863139,0.016798794,213.62778,85.8732,-4.0644736,STD
11195901535000,2.530323,-0.73219735118554,-9.70652185776001,0.206329691538099,-0.04550946,0.015577064,0.011911872,213.63797,85.866936,-4.070319,STD
11195906200000,2.534988,-0.72997892518559,-9.70874033008913,0.208548118696278,-0.03848451,0.0125227375,0.013439035,213.64833,85.8588,-4.0779657,STD
11195911185000,2.539973,-0.727608324197433,-9.71111098058445,0.210918720922114,-0.036651913,0.0125227375,0.01863139,213.65845,85.851685,-4.0850167,STD
11195916171000,2.544959,-0.725237247662438,-9.71348210663654,0.213289798695037,-0.03756821,0.02565634,0.018020526,213.6713,85.84582,-4.0906224,STD
11195921512000,2.5503,-0.722697351999901,-9.71602205534176,0.215829695683641,-0.04734206,0.010995574,0.018325957,213.67775,85.83986,-4.0970335,STD
11195926265000,2.555053,-0.720437077878193,-9.71828237666658,0.218089970985426,-0.037873644,0.015577064,0.019242255,213.69319,85.83327,-4.10327,STD
11195931209000,2.559997,-0.718930602116301,-9.72012394194471,0.219596447533842,-0.050396383,0.018325957,0.009773844,213.70055,85.82875,-4.1079793,STD
11195936287000,2.565075,-0.728202478265014,-9.71548790705434,0.210324566544328,-0.056199603,0.016798794,0.015882496,213.70778,85.8191,-4.1171136,STD
11195941539000,2.570327,-0.73712033893307,-9.71097992240059,0.201406701271425,-0.050701816,0.02076942,0.02076942,213.7186,85.81438,-4.121057,STD
11195946191000,2.574979,-0.730518520172882,-9.71318057461101,0.208008524627315,-0.051923547,0.020463986,0.016493361,213.72755,85.81134,-4.1239066,STD
11195951567000,2.580355,-0.722889247246234,-9.71572371869597,0.215637802864905,-0.042455133,0.018936822,0.009162978,213.73578,85.80563,-4.1289396,STD
11195956207000,2.584995,-0.716304458113114,-9.71791869424549,0.222222596581872,-0.05375614,0.02076942,0.021991149,213.74461,85.79678,-4.138294,STD
11195961183000,2.589971,-0.70924283942208,-9.72027261630032,0.229284220188689,-0.053145275,0.018936822,0.016187929,213.75154,85.79167,-4.1421657,STD
11195966174000,2.594962,-0.717338024670729,-9.71613174729703,0.234170531372125,-0.053450707,0.012217305,0.024740042,213.75731,85.77986,-4.1534657,STD
11195971193000,2.599981,-0.726786807686259,-9.71140725712601,0.238894932746216,-0.046731193,0.022907447,0.020463986,213.76746,85.77322,-4.1592073,STD
11195976197000,2.604985,-0.716608805063291,-9.70339657120253,0.235677340537975,-0.05497787,0.015577064,0.01863139,213.77446,85.77065,-4.1621466,STD
11195981172000,2.60996,-0.704044306118143,-9.69502050096695,0.231489165476442,-0.049785517,0.021380283,0.017104227,213.78812,85.76835,-4.163869,STD
11195986185000,2.614973,-0.705571055038075,-9.68849685498289,0.216915039799139,-0.052534413,0.016493361,0.024129177,213.79262,85.76106,-4.170394,STD
11195991177000,2.619965,-0.716123397075378,-9.68322057377773,0.195810339196557,-0.042455133,0.023518313,0.015882496,213.80215,85.75781,-4.171969,STD
11195996650000,2.625438,-0.720380337364818,-9.67791223672983,0.189416292635182,-0.042455133,0.02076942,0.01985312,213.80185,85.75266,-4.1753654,STD
11196001167000,2.629955,-0.722526304504415,-9.67362021281873,0.187270325495585,-0.046731193,0.019242255,0.020463986,213.804,85.750595,-4.175392,STD
11196006179000,2.634967,-0.724907439617026,-9.6688578431392,0.184889190382975,-0.050701816,0.01985312,0.017104227,213.79782,85.747574,-4.176152,STD
11196011221000,2.640009,-0.727302827334061,-9.66406696765552,0.182493802665939,-0.040011674,0.03359759,0.018020526,213.79515,85.742714,-4.1783047,STD
11196016174000,2.644962,-0.729595657254545,-9.67003139229699,0.194267838126049,-0.043676864,0.017715093,0.016187929,213.78352,85.7361,-4.1820774,STD
11196021261000,2.650049,-0.731932324797352,-9.67937801366972,0.210624520685405,-0.03390302,0.013744468,0.014966198,213.77939,85.72796,-4.186192,STD
11196026192000,2.65498,-0.734197335147969,-9.68843800777016,0.226479602600125,-0.030543262,0.025350908,0.018020526,213.77467,85.71904,-4.191906,STD
11196031335000,2.660123,-0.736559725785409,-9.69788752098422,0.243016346929349,-0.038179077,0.025961773,0.018325957,213.76593,85.711525,-4.1962724,STD
11196036192000,2.66498,-0.738379608446866,-9.70516711444142,0.24899697,-0.038179077,0.026267206,0.018936822,213.75737,85.70472,-4.1993365,STD
11196041203000,2.669991,-0.73999394372456,-9.71162459040603,0.24899697,-0.040011674,0.013744468,0.02107485,213.74553,85.69814,-4.202771,STD
11196046190000,2.674978,-0.741600547202879,-9.71805113852727,0.24899697,-0.035124753,0.0106901415,0.018936822,213.74129,85.689964,-4.2066245,STD
11196051179000,2.679967,-0.743207794997813,-9.72448026396878,0.24899697,-0.040927973,0.0125227375,0.017715093,213.73505,85.68197,-4.211139,STD
11196056204000,2.684992,-0.744826640491809,-9.73095578117536,0.24899697,-0.033292156,0.009468411,0.016798794,213.72353,85.67678,-4.2118783,STD
11196061195000,2.689983,-0.746434532603357,-9.73738748393716,0.24899697,-0.03359759,0.016493361,0.022907447,213.71568,85.67094,-4.214328,STD
11196066855000,2.695643,-0.739612730675808,-9.73223467659158,0.241618796823702,-0.03176499,0.009162978,0.018325957,213.7032,85.66777,-4.213365,STD
11196071204000,2.699992,-0.731454160019589,-9.72407593555338,0.233460221907933,-0.040011674,0.007330383,0.019547688,213.69449,85.662125,-4.2158117,STD
11196076243000,2.705031,-0.722368107746673,-9.71772434676457,0.218904966927031,-0.038179077,0.007330383,0.021991149,213.68384,85.65213,-4.220876,STD
11196081193000,2.709981,-0.713665921422671,-9.7133731627352,0.201500580648922,-0.03940081,0.012217305,0.016798794,213.67438,85.64491,-4.2239914,STD
11196086202000,2.71499,-0.70656007865117,-9.71194383284906,0.192597941783147,-0.041233405,0.01038471,0.01740966,213.66353,85.63684,-4.2282043,STD
11196091202000,2.71999,-0.70167819049294,-9.71438482790437,0.195038888411072,-0.046731193,0.017715093,0.0143553335,213.65701,85.631744,-4.2298737,STD
11196096191000,2.724979,-0.696807042488658,-9.71682045277056,0.197474464956415,-0.048258353,0.015577064,0.019547688,213.64508,85.62394,-4.233944,STD
11196101188000,2.729976,-0.691928083463323,-9.71925998322883,0.199913947016363,-0.05009095,0.024129177,0.014966198,213.63866,85.620255,-4.234385,STD
11196106165000,2.734953,-0.688313944811606,-9.71802663882732,0.202329096458291,-0.046120327,0.005192355,0.018020526,213.6239,85.612885,-4.2382464,STD
11196111162000,2.73995,-0.685903342877292,-9.71320533427362,0.204739700909732,-0.053450707,0.019242255,0.015577064,213.6213,85.60942,-4.239395,STD
11196116180000,2.744968,-0.68348261033649,-9.70836376808382,0.207160435978239,-0.04550946,0.027488936,0.016493361,213.61615,85.60106,-4.243528,STD
11196121162000,2.74995,-0.681079244549668,-9.70355693612734,0.209563804274632,-0.056199603,0.01863139,0.013439035,213.61028,85.59664,-4.2456694,STD
11196126181000,2.754969,-0.683234365203522,-9.70021140296032,0.212877127944366,-0.049480084,0.016187929,0.013439035,213.60867,85.589455,-4.248868,STD
11196131153000,2.759941,-0.689310140321552,-9.69818631376802,0.216927646804474,-0.04520403,0.015271631,0.012217305,213.6051,85.58463,-4.2506986,STD
11196136881000,2.765669,-0.696309746089065,-9.69585330675003,0.22159405308579,-0.049480084,0.014966198,0.021380283,213.60165,85.577835,-4.254579,STD
11196141165000,2.769953,-0.701544786436136,-9.69410843907107,0.225084081805963,-0.052534413,0.013439035,0.016493361,213.59785,85.575,-4.2539997,STD
11196146162000,2.77495,-0.707651111509506,-9.692073167411,0.229154967313598,-0.037873644,0.00580322,0.017104227,213.59222,85.56728,-4.2574363,STD
11196151211000,2.779999,-0.731128157130115,-9.69621751644553,0.234332260800535,-0.03726278,0.01038471,0.014660766,213.58984,85.56326,-4.2585845,STD
11196156341000,2.785129,-0.755882637383635,-9.70027742038216,0.238735116310632,-0.04153884,0.0036651916,0.018325957,213.58435115373,85.5549335237711,-4.26290572368023,STD
11196161118000,2.789906,-0.746916763086722,-9.68682879617834,0.229769227970603,-0.03848451,0.004581489,0.021991149,213.57924,85.54718,-4.2669296,STD
11196166392000,2.79518,-0.737010544195916,-9.67287766263917,0.220165661048979,-0.04184427,-0.00580322,0.021380283,213.56949,85.53551,-4.275504,STD
11196171138000,2.799926,-0.727933407484148,-9.67968542039043,0.217896376871037,-0.035124753,0.003970624,0.024740042,213.56587,85.52107,-4.2861004,STD
11196176372000,2.80516,-0.717922928438764,-9.68719317514604,0.215393757109691,-0.03604105,0.004581489,0.021380283,213.55713,85.51116,-4.293193,STD
11196181122000,2.80991,-0.708838141379999,-9.69400667057766,0.213122560345,-0.038789943,0.002443461,0.016798794,213.55052,85.50065,-4.300665,STD
11196186407000,2.815195,-0.699288586209553,-9.70112332896764,0.210871436209553,-0.046731193,0.004581489,0.018020526,213.54228,85.48848,-4.309319,STD
11196191113000,2.819901,-0.703628765408321,-9.69678351232666,0.215211615408321,-0.045814894,0.003970624,0.01985312,213.53287,85.47721,-4.3166,STD
11196196089000,2.824877,-0.708217956163328,-9.69219470493066,0.219800806163328,-0.03940081,0.003970624,0.021380283,213.52588,85.46907,-4.320943,STD
11196201213000,2.830001,-0.713096192688279,-9.69614112408978,0.233504037279801,-0.050396383,0.009773844,0.027183503,213.52052,85.46094,-4.326928,STD
11196206167000,2.834955,-0.717828708119701,-9.70087324418953,0.247701593457357,-0.043066,0.01282817,0.018936822,213.51463,85.45435,-4.329157,STD
11196211197000,2.839985,-0.714215980590406,-9.70939420774908,0.253041489409594,-0.040927973,0.008552114,0.014966198,213.50629,85.4524,-4.329624,STD
11196216148000,2.844936,-0.709841927380074,-9.71814249686347,0.257415542619926,-0.03726278,0.025961773,0.021685716,213.50517,85.44903,-4.3310027,STD
11196221224000,2.850012,-0.704961530907402,-9.72418124682564,0.266018119845153,-0.047647487,0.025045475,0.022296581,213.49815,85.44874,-4.329623,STD
11196226205000,2.854993,-0.700037195117167,-9.72910568545473,0.27586680685145,-0.03848451,0.022602014,0.021685716,213.49573,85.44502,-4.3298807,STD
11196231196000,2.859984,-0.70994603553796,-9.72642287936656,0.270501298323242,-0.040317107,0.02321288,0.0143553335,213.49472,85.44568,-4.3273525,STD
11196236182000,2.86497,-0.723290215733582,-9.72197472640894,0.261605164258966,-0.043066,0.02321288,0.018325957,213.49284,85.44278,-4.327849,STD
11196241199000,2.869987,-0.7278373,-9.71716165788108,0.251979220038394,-0.03390302,0.029321533,0.018020526,213.49167,85.44462,-4.322151,STD
11196246159000,2.874947,-0.7278373,-9.71223253886064,0.242121182723877,-0.050396383,0.023518313,0.013744468,213.48721,85.448975,-4.316485,STD
11196251168000,2.879956,-0.7278373,-9.70725472491439,0.232165757540728,-0.042760566,0.017715093,0.015577064,213.48288,85.44677,-4.3152637,STD
11196256183000,2.884971,-0.7278373,-9.70227094832417,0.222198407312442,-0.03940081,0.027183503,0.022296581,213.48138,85.44623,-4.3143888,STD
11196261192000,2.88998,-0.731497044566452,-9.69032591915941,0.227586050597312,-0.054367006,0.028405234,0.017104227,213.47609,85.44938,-4.310614,STD
11196266181000,2.894969,-0.736019825255585,-9.67675776599773,0.236631626143506,-0.042455133,0.025045475,0.015271631,213.47221,85.44708,-4.3097677,STD
11196271199000,2.899987,-0.730601494930499,-9.6691686263287,0.242826478977923,-0.03634648,0.029626964,0.022602014,213.47005,85.44565,-4.3109446,STD
11196276203000,2.904991,-0.720805438675388,-9.66427049591169,0.247724501991006,-0.05681047,0.022296581,0.01282817,213.46375,85.45069,-4.3066487,STD
11196281191000,2.909979,-0.721691550942297,-9.6767221321158,0.238703810007772,-0.04520403,0.038179077,0.017104227,213.46481,85.45136,-4.304978,STD
11196286294000,2.915082,-0.726439016495046,-9.69571189518166,0.224461403435011,-0.04734206,0.028405234,0.020158553,213.45659,85.45789,-4.300155,STD
11196291198000,2.919986,-0.73772919009921,-9.69471061318081,0.21037465301478,-0.03970624,0.02687807,0.025045475,213.4563,85.46185,-4.2957835,STD
11196296195000,2.924983,-0.752263084490788,-9.68502165377607,0.19584074850577,-0.047036625,0.026572637,0.015271631,213.45372,85.47035,-4.2881975,STD
11196301178000,2.929966,-0.753235936130698,-9.69547898589731,0.204863195914192,-0.043676864,0.027183503,0.01985312,213.45322,85.46463,-4.292965,STD
11196306206000,2.934994,-0.748453718393088,-9.71460775697686,0.223992081845268,-0.04795292,0.036957346,0.020158553,213.4554,85.46413,-4.293751,STD
11196311198000,2.939986,-0.739905230481971,-9.71809706083542,0.225119577855052,-0.03634648,0.03176499,0.021380283,213.45145,85.45849,-4.2988024,STD
11196316167000,2.944955,-0.729711631224563,-9.71469912345591,0.218323841468761,-0.051618114,0.027794369,0.014966198,213.45065,85.457825,-4.3017,STD
11196321321000,2.950109,-0.719138515794359,-9.71117467804356,0.211275094168511,-0.044593163,0.01740966,0.020463986,213.44771,85.451294,-4.3064985,STD
11196326250000,2.955038,-0.704043753034301,-9.70140446558927,0.215428665655233,-0.034208454,0.026572637,0.023518313,213.44936,85.44836,-4.3088026,STD
11196331197000,2.959985,-0.690529023429475,-9.69139601856974,0.22059952482418,-0.053450707,0.02076942,0.01160644,213.4438,85.4501,-4.3081837,STD
11196336230000,2.965018,-0.704811925760569,-9.68663495169893,0.225360497239234,-0.04734206,0.025350908,0.01985312,213.44255,85.44443,-4.3119354,STD
11196341330000,2.970118,-0.716893197330433,-9.68249383280601,0.228817882283963,-0.03970624,0.01038471,0.022907447,213.44426,85.44103,-4.314441,STD
11196346197000,2.974985,-0.698459230314416,-9.68710242080285,0.214992397397667,-0.04550946,0.01863139,0.019547688,213.4538,85.43802,-4.317485,STD
11196351449000,2.980237,-0.680068297007874,-9.69218898562992,0.201572928511811,-0.04886922,0.024129177,0.021380283,213.45561,85.436905,-4.3194275,STD
11196356265000,2.985053,-0.68158148167979,-9.69824169271654,0.207625673519685,-0.049785517,0.026267206,0.019242255,213.45882,85.43807,-4.3192816,STD
11196361492000,2.99028,-0.683223802335958,-9.70481094104331,0.214194963003937,-0.052534413,0.023823744,0.020463986,213.46097,85.43416,-4.3225284,STD
11196366189000,2.994977,-0.684699597270341,-9.71071408996063,0.220098148905512,-0.048258353,0.027183503,0.021380283,213.46535,85.4305,-4.32501,STD
11196371166000,2.999954,-0.686263368057743,-9.71696914045276,0.226353238586614,-0.062002823,0.025045475,0.021380283,213.46739,85.4288,-4.327398,STD
11196376211000,3.004999,-0.687848504409449,-9.7233096527559,0.232693790614173,-0.053450707,0.01985312,0.018325957,213.4695,85.42541,-4.32904,STD
11196381148000,3.009936,-0.689399707217848,-9.72951443159449,0.238898608326772,-0.04184427,0.027794369,0.016493361,213.47466,85.42276,-4.3310075,STD
11196386192000,3.01498,-0.705999314154361,-9.73827034912232,0.222950948648649,-0.044593163,0.025961773,0.013133603,213.47552,85.42199,-4.331471,STD
11196391738000,3.020526,-0.725731062199313,-9.74813591408935,0.20321918,-0.040011674,0.034513887,0.020158553,213.48157,85.41729,-4.3344283,STD
11196396196000,3.024984,-0.724078145892984,-9.74730957995736,0.204872096069652,-0.052839845,0.029626964,0.017715093,213.4834,85.41664,-4.3338532,STD
11196401136000,3.029924,-0.7192746742715,-9.74490804477612,0.209675570199005,-0.05009095,0.028099801,0.015882496,213.48854,85.41226,-4.335401,STD
11196406175000,3.034963,-0.71437493874505,-9.74245838166311,0.214575308283582,-0.044898596,0.025045475,0.017715093,213.48929,85.40632,-4.340713,STD
11196411133000,3.039921,-0.70955396459539,-9.74004809594883,0.219396284950249,-0.044898596,0.021685716,0.013439035,213.48953,85.40293,-4.34358,STD
11196416211000,3.044999,-0.714685461046744,-9.74361404869157,0.218265962984419,-0.04734206,0.02565634,0.015882496,213.48961,85.392624,-4.3517175,STD
11196421159000,3.049947,-0.721784842748701,-9.74834682156412,0.215899502417099,-0.04642576,0.02687807,0.01282817,213.48805,85.38494,-4.356797,STD
11196426203000,3.054991,-0.729021965081902,-9.75317141864762,0.213487128306033,-0.044593163,0.021685716,0.010995574,213.487,85.3779,-4.3608823,STD
11196431129000,3.059917,-0.736089781222533,-9.75788314847183,0.211131189592489,-0.05131268,0.018936822,0.010995574,213.48705,85.37216,-4.3644767,STD
11196436180000,3.064968,-0.731551854376946,-9.75485795867728,0.206781582170432,-0.04184427,0.020158553,0.02107485,213.48671,85.36272,-4.3702807,STD
11196441188000,3.069976,-0.724439905229598,-9.75011680777025,0.202040277788048,-0.045814894,0.022296581,0.020158553,213.48601,85.35836,-4.3728046,STD
11196446182000,3.07497,-0.717347837729227,-9.74538891087934,0.197312227850823,-0.046731193,0.017104227,0.009468411,213.47903,85.35187,-4.376273,STD
11196451186000,3.079974,-0.710241569052444,-9.74065154683407,0.192574710452771,-0.040927973,0.013744468,0.019242255,213.47313,85.340126,-4.385176,STD
11196456206000,3.084994,-0.716007958972609,-9.73411969105176,0.20069146327566,-0.03726278,0.015882496,0.016187929,213.46767,85.3352,-4.38726,STD
11196461469000,3.090257,-0.725834004084219,-9.72675000331416,0.212974032490496,-0.050396383,0.016187929,0.018020526,213.46072,85.327675,-4.393334,STD
11196466194000,3.094982,-0.734655600731065,-9.72013366765767,0.224001039813335,-0.043676864,0.025350908,0.021685716,213.45134,85.327965,-4.3902884,STD
11196471288000,3.100076,-0.744166122068428,-9.71300062769276,0.235889203898528,-0.04520403,0.030543262,0.016798794,213.44121,85.33203,-4.385465,STD
11196476277000,3.105065,-0.742124804867709,-9.71899215855382,0.24428627851971,-0.05100725,0.021380283,0.02076942,213.42967,85.33244,-4.3842955,STD
11196481189000,3.109977,-0.735248435681918,-9.73045277386347,0.251162652492326,-0.043982297,0.018325957,0.017104227,213.42166,85.33503,-4.379769,STD
11196486189000,3.114977,-0.728248874214296,-9.74211870964284,0.258162218832529,-0.043066,0.022296581,0.019242255,213.41942,85.331184,-4.3834376,STD
11196491198000,3.119986,-0.721236713536033,-9.75380564410661,0.265174384392145,-0.050396383,0.025045475,0.019242255,213.41605,85.32912,-4.385367,STD
11196496198000,3.124986,-0.723758097762908,-9.74777086187956,0.262652993626286,-0.04550946,0.026572637,0.022907447,213.4135,85.3243,-4.3889127,STD
11196501172000,3.12996,-0.733272729381804,-9.72874169799261,0.253138347104764,-0.045814894,0.029321533,0.024129177,213.41211,85.32145,-4.391727,STD
11196506167000,3.134955,-0.72954237650305,-9.720459,0.252932835858263,-0.048563786,0.031154128,0.017715093,213.41113,85.329544,-4.3842382,STD
11196511195000,3.139983,-0.71555685503921,-9.720459,0.259925603891955,-0.052534413,0.029321533,0.013744468,213.40988,85.33661,-4.3779635,STD
11196516197000,3.144985,-0.701643653296544,-9.720459,0.266882212027302,-0.047647487,0.029626964,0.023518313,213.40842,85.33946,-4.376086,STD
11196521267000,3.150055,-0.687541307667732,-9.720459,0.273933392204473,-0.047647487,0.02443461,0.022296581,213.405,85.34695,-4.3700747,STD
11196526293000,3.155081,-0.681644232493277,-9.71876803219362,0.270963666495582,-0.053145275,0.024129177,0.020463986,213.40703,85.35642,-4.3645744,STD
11196531235000,3.160023,-0.685280693930081,-9.71513149481368,0.256417813154053,-0.047036625,0.029626964,0.02321288,213.40916,85.36353,-4.3602414,STD
11196536251000,3.165039,-0.688971606630811,-9.71144050503266,0.241654154643104,-0.046731193,0.022602014,0.0143553335,213.40974,85.38519,-4.3423705,STD
11196541199000,3.169987,-0.702837446926139,-9.70644612505529,0.234984388427687,-0.046731193,0.012217305,0.015271631,213.41081,85.40232,-4.32855,STD
11196546412000,3.1752,-0.717937787801205,-9.70146635946913,0.230166072367282,-0.04428773,0.02321288,0.023518313,213.41603,85.41893,-4.314929,STD
11196551165000,3.179953,-0.713653287575301,-9.70360865432041,0.234450574830102,-0.054367006,0.016798794,0.016493361,213.41211,85.43948,-4.2989597,STD
11196556216000,3.185004,-0.709100160993976,-9.70588526515437,0.239003703788592,-0.04795292,0.026572637,0.01740966,213.41489,85.448135,-4.293098,STD
11196561192000,3.18998,-0.704614641716868,-9.70812807163027,0.243489225407568,-0.04795292,0.024740042,0.023518313,213.4125,85.458374,-4.2868934,STD
11196566203000,3.194991,-0.700097572364458,-9.71038665347327,0.248006297118317,-0.04337143,0.025045475,0.022296581,213.41357,85.46892,-4.279207,STD
11196571262000,3.20005,-0.697857340593081,-9.71213158550247,0.245248289169687,-0.0421497,0.028710667,0.02107485,213.40865,85.477776,-4.2720485,STD
11196576195000,3.204983,-0.696300755604613,-9.71368820299835,0.240578530953542,-0.04642576,0.027183503,0.02443461,213.40242,85.48548,-4.266102,STD
11196581191000,3.209979,-0.694724291261944,-9.71526470026359,0.235849134633278,-0.040317107,0.02321288,0.018936822,213.40433,85.4958,-4.2571044,STD
11196586155000,3.214943,-0.693157924369028,-9.7168310998682,0.231150030683361,-0.04734206,0.028099801,0.021685716,213.40822,85.504295,-4.251695,STD
11196591193000,3.219981,-0.691568207123558,-9.71842085031301,0.226380875627018,-0.045814894,0.026572637,0.023823744,213.40916,85.51276,-4.244705,STD
11196596179000,3.224967,-0.689994898233937,-9.71999419205931,0.221660945672488,-0.04153884,0.02443461,0.018020526,213.41132,85.52272,-4.236473,STD
11196601185000,3.229973,-0.694563797158443,-9.72549262707662,0.22026655,-0.039095376,0.022907447,0.020463986,213.4131,85.529625,-4.2313986,STD
11196606223000,3.235011,-0.701741766669973,-9.73267049665261,0.22026655,-0.036651913,0.029932396,0.016798794,213.4168,85.53907,-4.223191,STD
11196611306000,3.240094,-0.708983850637243,-9.73991247979172,0.22026655,-0.046120327,0.023518313,0.017104227,213.42174,85.546165,-4.219393,STD
11196616260000,3.245048,-0.716042139831391,-9.74697067071659,0.22026655,-0.048563786,0.021685716,0.016187929,213.42987,85.55351,-4.214379,STD
11196621223000,3.250011,-0.713401724309831,-9.749189,0.223505738866931,-0.046731193,0.03176499,0.016798794,213.43942,85.560585,-4.2100525,STD
11196626241000,3.255029,-0.706243375392254,-9.749189,0.228277978953327,-0.042760566,0.023823744,0.01740966,213.44313,85.56768,-4.2054567,STD
11196631186000,3.259974,-0.69918916347567,-9.749189,0.232980794263654,-0.047036625,0.014966198,0.014966198,213.4482,85.573944,-4.202436,STD
11196636185000,3.264973,-0.692057918709037,-9.749189,0.237734964887786,-0.043676864,0.017104227,0.011301007,213.45398,85.57917,-4.199312,STD
11196641194000,3.269982,-0.692555385605543,-9.74616396711233,0.248496043134576,-0.03970624,0.03145956,0.008246681,213.46068,85.58502,-4.195793,STD
11196646812000,3.2756,-0.697805943076022,-9.74091384824827,0.264247726511174,-0.050701816,0.025045475,0.013439035,213.4619,85.59044,-4.19358,STD
11196651173000,3.279961,-0.693821859256506,-9.73432784888476,0.257580507475836,-0.04734206,0.017104227,0.0125227375,213.46472,85.599724,-4.184629,STD
11196656186000,3.284974,-0.684898346542751,-9.72540414981413,0.239733463412639,-0.049480084,0.021685716,0.017104227,213.4692,85.60727,-4.178996,STD
11196661196000,3.289984,-0.683102610126707,-9.720459,0.228793588861605,-0.044593163,0.030543262,0.020158553,213.47287,85.61345,-4.1731877,STD
11196666205000,3.294993,-0.690170215155682,-9.720459,0.226437718058639,-0.052839845,0.028710667,0.0143553335,213.47466,85.62196,-4.1662364,STD
11196671278000,3.300066,-0.69732812298399,-9.720459,0.224051746291131,-0.052534413,0.01863139,0.020463986,213.47867,85.61807,-4.1695065,STD
11196676236000,3.305024,-0.704323767969748,-9.720459,0.221719862194283,-0.055283304,0.024740042,0.020158553,213.4867,85.6186,-4.1692495,STD
11196681244000,3.310032,-0.707820487330232,-9.71959576930307,0.217676910187979,-0.04795292,0.01740966,0.028405234,213.48763,85.61424,-4.172965,STD
11196686193000,3.314981,-0.705593146609333,-9.71736838206683,0.210994883373749,-0.05375614,0.018325957,0.021685716,213.49272,85.615524,-4.172322,STD
11196691128000,3.319916,-0.703372106710842,-9.71514729578458,0.204331759039898,-0.0421497,0.027183503,0.019242255,213.4963,85.60939,-4.17753,STD
11196696194000,3.324982,-0.70109210911697,-9.71286725057568,0.197491761496781,-0.040317107,0.018325957,0.018325957,213.49504,85.60615,-4.1810155,STD
11196701187000,3.329975,-0.697984302296073,-9.70919812688822,0.193220027728097,-0.049785517,0.01740966,0.01740966,213.49855,85.60369,-4.1837792,STD
11196706181000,3.334969,-0.68835156529708,-9.69474922255791,0.207669143284995,-0.051923547,0.02321288,0.019547688,213.50139,85.59998,-4.187035,STD
11196711147000,3.339935,-0.680949899489883,-9.68364687842204,0.221263151050842,-0.04886922,0.02687807,0.022296581,213.50034,85.59766,-4.1892133,STD
11196716861000,3.345649,-0.690254751589866,-9.69760396225132,0.230568017724877,-0.044593163,0.024740042,0.0125227375,213.49934,85.598305,-4.1883607,STD
11196721259000,3.350047,-0.697416589100493,-9.70834656895086,0.237729866452984,-0.045814894,0.019242255,0.017715093,213.4997,85.5955,-4.1906514,STD
11196726223000,3.355011,-0.700343245953767,-9.71211837177337,0.235711138265759,-0.047647487,0.018020526,0.018020526,213.50078,85.596375,-4.1887794,STD
11196731138000,3.359926,-0.701891040238729,-9.71366619838216,0.231067750562297,-0.056505036,0.01740966,0.02076942,213.50044,85.59595,-4.189056,STD
11196736377000,3.365165,-0.703540866130676,-9.71531605872875,0.22611826771826,-0.040317107,0.005192355,0.01740966,213.50072,85.5976,-4.1868486,STD
11196741162000,3.36995,-0.705047721807899,-9.71682294587485,0.221597695966262,-0.041233405,0.022296581,0.022296581,213.50906,85.59849,-4.1879916,STD
11196746192000,3.37498,-0.706631731015093,-9.71840698816218,0.216845663382658,-0.047647487,0.018020526,0.016798794,213.50786,85.60212,-4.1850176,STD
11196751166000,3.379954,-0.708198105129723,-9.71997339498866,0.212146536131992,-0.04886922,0.004886922,0.01160644,213.50891,85.603966,-4.1835494,STD
11196756217000,3.385005,-0.705576442376329,-9.71424435496995,0.220011532604716,-0.04550946,0.012217305,0.0143553335,213.5145,85.60525,-4.1829185,STD
11196761285000,3.390073,-0.70108867331484,-9.70526862940361,0.233474853847434,-0.053145275,0.013744468,0.02076942,213.51468,85.60787,-4.1818285,STD
11196766218000,3.395006,-0.696466004062212,-9.70394595108974,0.223574790585286,-0.042760566,0.015271631,0.01863139,213.50784,85.608696,-4.179293,STD
11196771206000,3.399994,-0.691578141747672,-9.70883391548143,0.194247591178758,-0.05009095,0.016493361,0.022907447,213.50142,85.60821,-4.1804986,STD
11196776198000,3.404986,-0.701107635346803,-9.70798755571756,0.190642487554676,-0.04734206,0.013439035,0.01740966,213.49545,85.60961,-4.1771913,STD
11196781193000,3.409981,-0.721035198771089,-9.70300556082066,0.205588170526974,-0.04550946,0.012217305,0.02321288,213.49036,85.6075,-4.178403,STD
11196786632000,3.41542,-0.724258996983039,-9.70309418887277,0.212478901508481,-0.04184427,0.013439035,0.018020526,213.49261,85.609,-4.177913,STD
11196791206000,3.419994,-0.719875719532696,-9.70528587336769,0.214670540233652,-0.044593163,0.01985312,0.021380283,213.49582,85.60704,-4.181478,STD
11196796193000,3.424981,-0.715096662985941,-9.7076754515435,0.21706006850703,-0.046731193,0.014966198,0.02321288,213.49518,85.60371,-4.185603,STD
11196801167000,3.429955,-0.710330064376845,-9.7100588006204,0.219443367811578,-0.049785517,0.02687807,0.020463986,213.50111,85.60115,-4.1893826,STD
11196806208000,3.434996,-0.711821513685664,-9.70460656921712,0.20457747174226,-0.049480084,0.021991149,0.018325957,213.49805,85.59934,-4.1919665,STD
11196811194000,3.439982,-0.716529650621179,-9.69519059031749,0.181036772316111,-0.04153884,0.021685716,0.01740966,213.49965,85.59759,-4.194152,STD
11196816221000,3.445009,-0.714221240919745,-9.691729,0.17238252,-0.047647487,0.021685716,0.024129177,213.50092,85.5969,-4.196112,STD
11196821195000,3.449983,-0.707930923241227,-9.691729,0.17238252,-0.054061573,0.024129177,0.02321288,213.50284,85.59788,-4.195638,STD
11196826203000,3.454991,-0.701597607814202,-9.691729,0.17238252,-0.04917465,0.029321533,0.022602014,213.50386,85.59592,-4.1988072,STD
11196831190000,3.459978,-0.695290849820078,-9.691729,0.17238252,-0.043676864,0.0290161,0.01985312,213.50395,85.59529,-4.201019,STD
11196836178000,3.464966,-0.688982827186293,-9.691729,0.17238252,-0.047036625,0.016187929,0.01863139,213.50536,85.59706,-4.202442,STD
11196841203000,3.469991,-0.682628012885015,-9.691729,0.17238252,-0.04642576,0.013439035,0.01282817,213.50945,85.59996,-4.2017922,STD
11196846197000,3.474985,-0.688137214277234,-9.7080966006728,0.19420630564856,-0.035124753,0.0067195175,0.018936822,213.50858,85.59921,-4.2041078,STD
11196851171000,3.479959,-0.702276425675275,-9.73637462976155,0.231910893983378,-0.034208454,0.021991149,0.021380283,213.51324,85.60174,-4.203894,STD
11196856512000,3.4853,-0.714429221640268,-9.74631632917112,0.241815063450102,-0.040317107,0.010995574,0.02107485,213.51003,85.60562,-4.2014256,STD
11196861193000,3.489981,-0.723141494655524,-9.74196032912253,0.23092471535808,-0.053450707,-0.00061086525,0.015882496,213.51096,85.61062,-4.1983733,STD
11196866224000,3.495012,-0.732505187357886,-9.73727862943348,0.219220092147022,-0.04337143,0.012217305,0.01985312,213.5206,85.60278,-4.2046237,STD
11196871197000,3.499985,-0.741760930512098,-9.73265090282771,0.207650405955689,-0.04428773,0.011301007,0.01740966,213.52296,85.60027,-4.2072577,STD
11196876149000,3.504937,-0.744981840149846,-9.73204499691494,0.205131063895989,-0.035124753,0.014966198,0.018325957,213.527,85.59371,-4.2116594,STD
11196881187000,3.509975,-0.7402565163753,-9.73677017266539,0.214581721313354,-0.04184427,0.019547688,0.016798794,213.53102,85.59008,-4.214513,STD
11196886177000,3.514965,-0.735576213549777,-9.74145032887714,0.223942336738651,-0.04795292,0.015271631,0.017715093,213.53067,85.58228,-4.2220616,STD
11196891202000,3.51999,-0.730863082948925,-9.74616331183585,0.233368607783164,-0.050701816,0.014660766,0.011301007,213.53267,85.57743,-4.2268953,STD
11196896132000,3.52492,-0.728220894264492,-9.74650386418128,0.239803773863946,-0.047036625,0.013744468,0.01038471,213.53194,85.5666,-4.2362795,STD
11196901176000,3.529964,-0.729356369305627,-9.73855561003244,0.24093924771943,-0.042455133,0.015882496,0.012217305,213.5319,85.55723,-4.2443743,STD
11196906189000,3.534977,-0.730484865812609,-9.73065620518546,0.242067743048047,-0.046120327,0.01282817,0.014660766,213.53088,85.5549,-4.2460046,STD
11196911195000,3.539983,-0.731611786521555,-9.72276783082601,0.243194662580274,-0.05467244,0.019547688,0.020463986,213.53326,85.55129,-4.249127,STD
11196916185000,3.544973,-0.732735105406422,-9.71490466900945,0.244317980292182,-0.05375614,0.027183503,0.01985312,213.53459,85.547676,-4.251445,STD
11196921251000,3.550039,-0.733875532955667,-9.70692174761412,0.245458406650604,-0.047647487,0.025045475,0.017715093,213.53496,85.54333,-4.2548304,STD
11196926717000,3.555505,-0.735106006106906,-9.69830851264633,0.246688878516995,-0.050701816,0.025045475,0.015577064,213.53807,85.54001,-4.257957,STD
11196931160000,3.559948,-0.736106187631047,-9.69130730464012,0.247689058996756,-0.056199603,0.018325957,0.020158553,213.53857,85.53528,-4.26221,STD
11196937318000,3.566106,-0.737750773037681,-9.68114195979392,0.247313603756945,-0.05497787,0.01740966,0.015271631,213.53893,85.53481,-4.261749,STD
11196941238000,3.570026,-0.741543181967876,-9.66976449540358,0.228351547225982,-0.05100725,0.0143553335,0.018936822,213.53667,85.53106,-4.2649302,STD
11196946131000,3.574919,-0.746276920971815,-9.65556298181634,0.204682837377513,-0.053450707,0.02321288,0.018936822,213.53731,85.52907,-4.266687,STD
11196951185000,3.579973,-0.742877298407643,-9.6575346875,0.203169742943869,-0.050396383,0.023518313,0.015271631,213.53465,85.52637,-4.268291,STD
11196956145000,3.584933,-0.738149897133758,-9.6622621875,0.205533446048965,-0.05681047,0.013439035,0.019242255,213.53151,85.522705,-4.2719884,STD
11196961214000,3.590002,-0.733318607404459,-9.667093578125,0.207949093436007,-0.04734206,0.015882496,0.020463986,213.53998,85.51904,-4.2772946,STD
11196966155000,3.594943,-0.728609315127389,-9.67180296875,0.21030374203324,-0.042760566,0.015882496,0.015882496,213.54468,85.516914,-4.2818165,STD
11196972010000,3.600798,-0.737279347293336,-9.67729612223959,0.220131802222982,-0.047647487,0.015577064,0.015271631,213.54977,85.51348,-4.2876477,STD
11196976139000,3.604927,-0.745007040707446,-9.68116004963846,0.227859499671683,-0.046120327,0.017715093,0.01863139,213.55542,85.50938,-4.2931614,STD
11196981233000,3.610021,-0.744466787021006,-9.68720019960145,0.231105419125151,-0.051618114,0.009162978,0.019547688,213.55066,85.51132,-4.292101,STD
11196986227000,3.615015,-0.741341992718304,-9.69344975557806,0.232667819539381,-0.05131268,0.01863139,0.02107485,213.5517,85.51153,-4.2923365,STD
11196991187000,3.619975,-0.738238472545817,-9.69965676351638,0.23421958286629,-0.04337143,0.017715093,0.02076942,213.54703,85.5104,-4.293361,STD
11196996329000,3.625117,-0.73502107320571,-9.70609152860083,0.23582828589592,-0.04642576,0.008857546,0.01985312,213.5428,85.50991,-4.2946377,STD
11197001171000,3.629959,-0.731991386779262,-9.71215086981804,0.237343132272712,-0.03970624,0.019242255,0.01985312,213.53882,85.51109,-4.292723,STD
11197006345000,3.635133,-0.728753964728366,-9.71862568011499,0.238961846678645,-0.043066,0.016187929,0.016187929,213.52866,85.5145,-4.2894998,STD
11197011193000,3.639981,-0.729491879153261,-9.71714977258567,0.232801856476176,-0.041233405,0.016493361,0.018325957,213.52252,85.515236,-4.2881336,STD
11197016235000,3.645023,-0.731957852576477,-9.71221772274143,0.22293795248353,-0.05222898,0.021380283,0.020463986,213.51701,85.5182,-4.2858787,STD
11197021312000,3.6501,-0.734440944022267,-9.70725143613707,0.213005576329095,-0.051923547,0.016187929,0.019242255,213.50896,85.52938,-4.275689,STD
11197026242000,3.65503,-0.73685213977325,-9.70242894392523,0.203360783254175,-0.04734206,0.0106901415,0.018936822,213.5023,85.53986,-4.2667575,STD
11197031189000,3.659977,-0.732027415930296,-9.70310059885472,0.190339564360962,-0.040927973,0.020463986,0.019242255,213.49231,85.55006,-4.256645,STD
11197036217000,3.665005,-0.724896229120798,-9.70547771076665,0.176077180813546,-0.036957346,0.026572637,0.015271631,213.48006,85.560905,-4.2455974,STD
11197041841000,3.670629,-0.716919738544701,-9.70813659648516,0.160124188556055,-0.051618114,0.023823744,0.015271631,213.46693,85.570564,-4.2376757,STD
11197046193000,3.674981,-0.710747319094634,-9.71019411260305,0.147779341062349,-0.050701816,0.022602014,0.0106901415,213.45628,85.580574,-4.227713,STD
11197051174000,3.679962,-0.7086837,-9.71200634247852,0.148149379515882,-0.052534413,0.018020526,0.01985312,213.44402,85.58786,-4.222023,STD
11197056216000,3.685004,-0.7086837,-9.71361409482586,0.154580259640408,-0.04917465,0.030848695,0.01863139,213.43674,85.59831,-4.2125473,STD
11197061198000,3.689986,-0.7086837,-9.7152027148565,0.160934612036359,-0.046120327,0.021991149,0.013744468,213.42749,85.606735,-4.2064896,STD
11197066210000,3.694998,-0.7086837,-9.71680090104548,0.167327228296597,-0.040011674,0.02565634,0.01282817,213.42555,85.61359,-4.201581,STD
11197071247000,3.700035,-0.7086837,-9.7184070590331,0.173751731110408,-0.05467244,0.027794369,0.01282817,213.42073,85.62265,-4.195725,STD
11197076293000,3.705081,-0.7086837,-9.72001608686822,0.180187713083505,-0.04795292,0.01985312,0.012217305,213.41417,85.62961,-4.189629,STD
11197081191000,3.709979,-0.707038654415508,-9.7188139200607,0.19018456307568,-0.04917465,0.025961773,0.009162978,213.41232,85.63874,-4.1831717,STD
11197086189000,3.714977,-0.704695554435089,-9.71647077114744,0.201900070317701,-0.055283304,0.028099801,0.018020526,213.40707,85.6443,-4.180129,STD
11197091190000,3.719978,-0.702351048032113,-9.71412621578226,0.213622609676914,-0.045814894,0.017104227,0.018936822,213.3932,85.65357,-4.1702685,STD
11197096198000,3.724986,-0.700003259976503,-9.71177837869591,0.225361557309575,-0.043982297,0.020158553,0.018936822,213.38414,85.66143,-4.1631,STD
11197101192000,3.72998,-0.693668724486412,-9.71360114454169,0.216247912698296,-0.047036625,0.02321288,0.012217305,213.36775,85.66786,-4.155344,STD
11197106165000,3.734953,-0.684893887747582,-9.71798865453708,0.194310807107324,-0.04337143,0.018020526,0.015882496,213.35017,85.67054,-4.1508093,STD
11197111625000,3.740413,-0.686956219820398,-9.722793355356,0.186627945651058,-0.05131268,0.022602014,0.0143553335,213.33818,85.67793,-4.1417437,STD
11197116185000,3.744973,-0.698961225226794,-9.72679510739485,0.194631286767158,-0.05375614,0.017715093,0.02076942,213.32227,85.68115,-4.136227,STD
11197121149000,3.749937,-0.709995915696421,-9.73266034918068,0.199800722933376,-0.045814894,0.022296581,0.018020526,213.30728,85.68912,-4.126064,STD
11197126167000,3.754955,-0.715176638249245,-9.74302146970677,0.194619994970893,-0.047036625,0.023518313,0.01985312,213.29016,85.69472,-4.1193595,STD
11197131130000,3.759918,-0.708988693630573,-9.74548039363057,0.193390493210191,-0.050396383,0.021991149,0.022602014,213.27316,85.69805,-4.114341,STD
11197136602000,3.76539,-0.683312922146007,-9.73521040676139,0.198525652869182,-0.049480084,0.023518313,0.01863139,213.25775,85.70229,-4.108178,STD
11197141170000,3.769958,-0.673789583695759,-9.72832942251304,0.202819483629834,-0.061391957,0.013439035,0.027794369,213.245,85.69827,-4.112307,STD
11197146161000,3.774949,-0.683195823742989,-9.72362620427039,0.2075226085644,-0.04520403,0.020463986,0.021380283,213.23792,85.69718,-4.110978,STD
11197151195000,3.779983,-0.692673823418032,-9.71259969145492,0.212261611709016,-0.046731193,0.01863139,0.021991149,213.22682,85.697556,-4.110047,STD
11197161089000,3.789877,-0.709349011113358,-9.672575,0.218935927078572,-0.048563786,0.02076942,0.025350908,213.20992,85.6968,-4.107162,STD
11197166099000,3.794887,-0.711774927181717,-9.672575,0.214084092408737,-0.045814894,0.016493361,0.016798794,213.19867,85.69958,-4.102302,STD
11197171099000,3.799887,-0.714196001102235,-9.672575,0.20924194203964,-0.040927973,0.028710667,0.021380283,213.19641,85.695305,-4.105615,STD
11197176113000,3.804901,-0.71662385402973,-9.672575,0.20438623364951,-0.052534413,0.03023783,0.022907447,213.19008,85.69537,-4.105566,STD
11197181110000,3.809898,-0.719004610595358,-9.67406325227043,0.200368828627649,-0.057726767,0.025961773,0.02107485,213.19252,85.68839,-4.111583,STD
11197186119000,3.814907,-0.721309650776032,-9.67867342890779,0.198063786040075,-0.049480084,0.03023783,0.017715093,213.19774,85.68151,-4.117418,STD
11197191115000,3.819903,-0.723608708620441,-9.68327164062275,0.195764725795012,-0.04153884,0.029932396,0.015271631,213.19946,85.67495,-4.123805,STD
11197196110000,3.824898,-0.725907306285138,-9.68786893195906,0.193466125730143,-0.053450707,0.028405234,0.018020526,213.20197,85.66913,-4.1305175,STD
11197201214000,3.830002,-0.728274487117488,-9.6930405430922,0.192410505147988,-0.038789943,0.02687807,0.014660766,213.2115,85.662636,-4.1363,STD
11197206179000,3.834967,-0.730659799247517,-9.70019637985352,0.197181134389485,-0.04550946,0.026267206,0.017104227,213.22054,85.65689,-4.144247,STD
11197211162000,3.83995,-0.733053759034815,-9.70737815922544,0.20196905896358,-0.047036625,0.018936822,0.018936822,213.22491,85.65705,-4.146254,STD
11197216174000,3.844962,-0.735461651158824,-9.71460173502559,0.206784848240193,-0.038179077,0.027183503,0.018020526,213.23338,85.656944,-4.1481953,STD
11197221233000,3.850021,-0.736455552972538,-9.72333460104617,0.215482487139121,-0.0421497,0.022296581,0.019547688,213.23581,85.65686,-4.1511617,STD
11197226223000,3.855011,-0.731648367377527,-9.73775595704657,0.239518425153405,-0.044593163,0.015882496,0.0125227375,213.24007,85.6585,-4.1513643,STD
11197231170000,3.859958,-0.726437092151077,-9.74965574569686,0.255306616403069,-0.047036625,0.021380283,0.016187929,213.25021,85.6557,-4.1567664,STD
11197236152000,3.86494,-0.719397903953969,-9.75200219076424,0.238881834142815,-0.054061573,0.025961773,0.015577064,213.25816,85.65657,-4.1588,STD
11197241168000,3.869956,-0.712310676335202,-9.75436464930658,0.222344959831809,-0.03573562,0.016798794,0.014049901,213.26512,85.65552,-4.1597233,STD
11197246170000,3.874958,-0.705243229654765,-9.75672051406511,0.205854241071112,-0.04153884,0.01282817,0.014049901,213.27464,85.656784,-4.160881,STD
11197251244000,3.880032,-0.698410388130534,-9.75806947358472,0.192929155193513,-0.048563786,0.014049901,0.014049901,213.28288,85.657104,-4.161502,STD
11197256240000,3.885028,-0.693650096338673,-9.75330908237986,0.202449748718535,-0.05375614,0.014660766,0.0106901415,213.28969,85.658676,-4.1610785,STD
11197261209000,3.889997,-0.689834372498892,-9.74858047406532,0.212211113129895,-0.054367006,0.020158553,0.013133603,213.2977,85.66107,-4.161122,STD
11197266210000,3.894998,-0.692193545780996,-9.74386227530663,0.224006984467268,-0.04795292,0.016187929,0.014660766,213.30302,85.66435,-4.15992,STD
11197271584000,3.900372,-0.694728678198118,-9.73879216930201,0.2366826518472,-0.051618114,0.016493361,0.010079277,213.32823,85.663185,-4.165039,STD
11197276277000,3.905065,-0.696942555465248,-9.73436455347027,0.247752042806266,-0.04886922,0.01740966,0.013133603,213.35191,85.65866,-4.1724143,STD
11197281229000,3.910017,-0.69877056392976,-9.72902698827729,0.257732929473202,-0.05222898,0.02107485,0.013133603,213.37598,85.657135,-4.1773286,STD
11197286184000,3.914972,-0.694192142973612,-9.71529167760143,0.246286872302089,-0.046120327,0.01985312,0.0143553335,213.39838,85.65363,-4.1831303,STD
11197291345000,3.920133,-0.689423377977712,-9.70098533281876,0.234364954832843,-0.04917465,0.020463986,0.014660766,213.43391,85.64836,-4.192395,STD
11197296175000,3.924963,-0.684960457045685,-9.68759652342129,0.223207647842636,-0.04917465,0.02076942,0.013133603,213.46826,85.64287,-4.2009664,STD
11197301181000,3.929969,-0.680334912079695,-9.67371984022384,0.211643780597713,-0.05009095,0.023518313,0.013744468,213.49586,85.639404,-4.20686,STD
11197306216000,3.935004,-0.698161432291238,-9.69078303722748,0.21524178307281,-0.04795292,0.029626964,0.013744468,213.52399,85.6365,-4.2118373,STD
11197311518000,3.940306,-0.7182605,-9.71069544761534,0.220328735058927,-0.056505036,0.027183503,0.014966198,213.54987,85.63415,-4.216971,STD
11197316221000,3.945009,-0.7182605,-9.70630866828999,0.221791016719587,-0.059253927,0.021991149,0.019242255,213.57562,85.631645,-4.2222834,STD
11197321189000,3.949977,-0.7182605,-9.70167470705497,0.223335693583325,-0.05100725,0.018020526,0.016493361,213.59921,85.62815,-4.22828,STD
11197326197000,3.954985,-0.7182605,-9.69700343534301,0.224892807458849,-0.05131268,0.022296581,0.016798794,213.62308,85.62365,-4.2360253,STD
11197331139000,3.959927,-0.7182605,-9.69239372591799,0.226429400264926,-0.05681047,0.01740966,0.016187929,213.64273,85.620125,-4.2423234,STD
11197336187000,3.964975,-0.7182605,-9.6876851437291,0.227998951152235,-0.053145275,0.015882496,0.015882496,213.66411,85.61229,-4.2513423,STD
11197341131000,3.969919,-0.7182605,-9.68307356878024,0.229536165808902,-0.050701816,0.014966198,0.010995574,213.68384,85.60668,-4.2584567,STD
11197346232000,3.97502,-0.71076204608795,-9.68590130525414,0.222344902173044,-0.047647487,0.021685716,0.017104227,213.69792,85.60272,-4.263506,STD
11197351160000,3.979948,-0.701777757034076,-9.69039354359414,0.213360608428517,-0.050396383,0.017104227,0.018325957,213.70828,85.60179,-4.2655582,STD
11197356305000,3.985093,-0.701426409279979,-9.69752777319995,0.211849504639989,-0.04062254,0.020158553,0.016493361,213.72264,85.59892,-4.268365,STD
11197361226000,3.990014,-0.704528122640516,-9.70528205660129,0.213400361320258,-0.04550946,0.016493361,0.019547688,213.73346,85.59572,-4.2726736,STD
11197366707000,3.995495,-0.707982804804528,-9.71391876201132,0.215127702402264,-0.04795292,0.01282817,0.016493361,213.738,85.59846,-4.269686,STD
11197371270000,4.000058,-0.710858870251415,-9.72110892562854,0.216565735125708,-0.049480084,0.011911872,0.020463986,213.74217,85.59866,-4.2695804,STD
11197376235000,4.005023,-0.713988316875082,-9.72893254218771,0.218130458437541,-0.038179077,0.014049901,0.02107485,213.74847,85.59803,-4.2694945,STD
11197381240000,4.010028,-0.71714297555614,-9.73681918889035,0.21970778777807,-0.03940081,0.01985312,0.018325957,213.75543,85.59827,-4.2695317,STD
11197386204000,4.014992,-0.709275914896119,-9.74260761152489,0.223261414828499,-0.040927973,0.01038471,0.018325957,213.75848,85.5969,-4.2703614,STD
11197391283000,4.020071,-0.69497547373579,-9.74737402704822,0.228028233526068,-0.04428773,0.016493361,0.017715093,213.76758,85.59678,-4.2702513,STD
11197396237000,4.025025,-0.695369376398143,-9.74043020734908,0.221084439305471,-0.03756821,0.013439035,0.015882496,213.77077,85.59534,-4.2707114,STD
11197401326000,4.030114,-0.705209137189582,-9.72567077165354,0.206324787843731,-0.036651913,0.013744468,0.017715093,213.77654,85.59376,-4.2720237,STD
11197406219000,4.035007,-0.700283537718387,-9.71205895466994,0.20391299701766,-0.04642576,0.018325957,0.017104227,213.77904,85.59795,-4.267053,STD
11197411276000,4.040064,-0.686562730012277,-9.69833833799226,0.208486604362074,-0.03970624,0.01863139,0.01740966,213.78038,85.60009,-4.2629447,STD
